timestamp,Force,Accelerationx,Accelerationy,Accelerationz,AccelerationResultant
0.05215263366699219,1.67,0.6,9.6,0.7,9.6
0.1067507266998291,1.68,0.6,9.6,0.7,9.6
0.16194486618041992,1.7,0.6,9.6,0.7,9.6
0.21776342391967773,1.71,0.6,9.6,0.7,9.6
0.2722301483154297,1.7,0.6,9.6,0.7,9.6
0.3278992176055908,1.69,0.6,9.6,0.7,9.6
0.39597535133361816,1.7,0.6,9.6,0.7,9.6
0.45111966133117676,1.71,0.6,9.6,0.7,9.6
0.5057029724121094,1.7,0.6,9.6,0.7,9.6
0.5615570545196533,1.72,0.6,9.6,0.7,9.6
0.6157948970794678,1.71,0.6,9.6,0.7,9.6
0.6708328723907471,1.71,0.6,9.6,0.7,9.6
0.7263813018798828,1.71,0.6,9.6,0.7,9.6
0.7813365459442139,1.68,0.6,9.6,0.7,9.6
0.8501338958740234,1.69,0.6,9.6,0.7,9.6
0.9258677959442139,1.71,0.6,9.6,0.7,9.6
1.0003082752227783,1.69,0.6,9.6,0.7,9.6
1.0758154392242432,1.7,0.6,9.6,0.7,9.6
1.15226149559021,1.7,0.6,9.6,0.6,9.6
1.2268788814544678,1.7,0.6,9.6,0.7,9.6
1.3014559745788574,1.71,0.6,9.6,0.7,9.6
1.3752834796905518,1.69,0.6,9.6,0.7,9.6
1.4510250091552734,1.69,0.6,9.6,0.7,9.6
1.5266749858856201,1.68,0.6,9.6,0.7,9.6
1.6008944511413574,1.68,0.6,9.6,0.7,9.6
1.6759774684906006,1.69,0.6,9.6,0.7,9.6
1.751009464263916,1.69,0.6,9.6,0.7,9.6
1.8258776664733887,1.69,0.6,9.6,0.7,9.6
1.9013724327087402,1.7,0.6,9.6,0.7,9.6
1.97617506980896,1.67,0.6,9.6,0.7,9.6
2.050985097885132,1.68,0.6,9.6,0.7,9.6
2.1260886192321777,1.68,0.6,9.6,0.7,9.6
2.201575517654419,1.67,0.6,9.6,0.7,9.6
2.2758724689483643,1.69,0.6,9.6,0.7,9.6
2.3512728214263916,1.67,0.6,9.6,0.7,9.6
2.4257307052612305,1.67,0.6,9.6,0.6,9.6
2.5013208389282227,1.69,0.6,9.6,0.7,9.6
2.575542688369751,1.72,0.6,9.6,0.7,9.6
2.65170955657959,1.69,0.6,9.6,0.7,9.6
2.7268412113189697,1.68,0.6,9.6,0.7,9.6
2.801269054412842,1.68,0.6,9.6,0.7,9.6
2.894822835922241,1.69,0.6,9.6,0.6,9.6
2.9700982570648193,1.68,0.6,9.6,0.7,9.6
3.045273780822754,1.67,0.6,9.6,0.7,9.6
3.1198925971984863,1.69,0.6,9.6,0.7,9.6
3.195078134536743,1.67,0.6,9.6,0.7,9.6
3.269867181777954,1.7,0.6,9.6,0.7,9.6
3.345541477203369,1.69,0.6,9.6,0.6,9.6
3.4202706813812256,1.7,0.6,9.6,0.7,9.6
3.4949686527252197,1.67,0.6,9.6,0.7,9.6
3.570039987564087,1.7,0.6,9.6,0.7,9.6
3.644447088241577,1.7,0.6,9.6,0.7,9.6
3.72011137008667,1.7,0.6,9.6,0.7,9.6
3.794793128967285,1.71,0.6,9.6,0.7,9.6
3.8696279525756836,1.69,0.6,9.6,0.6,9.6
3.945321559906006,1.7,0.6,9.6,0.6,9.6
4.020497560501099,1.66,0.6,9.6,0.7,9.6
4.095182657241821,1.71,0.6,9.6,0.7,9.6
4.169469594955444,1.7,0.6,9.6,0.7,9.6
4.244501113891602,1.72,0.6,9.6,0.7,9.6
4.320249319076538,1.69,0.6,9.6,0.7,9.6
4.394766092300415,1.7,0.6,9.6,0.7,9.6
4.470656871795654,1.7,0.6,9.6,0.7,9.6
4.544819355010986,1.71,0.6,9.6,0.7,9.6
4.638652324676514,1.7,0.6,9.6,0.7,9.6
4.713418483734131,1.69,0.6,9.6,0.7,9.6
4.788697242736816,1.7,0.6,9.6,0.7,9.6
4.863828897476196,1.7,0.6,9.6,0.7,9.6
4.938831090927124,1.69,0.6,9.6,0.7,9.6
5.014087200164795,1.68,0.6,9.6,0.7,9.6
5.088542461395264,1.68,0.6,9.6,0.7,9.6
5.163490295410156,1.69,0.6,9.6,0.7,9.6
5.239028215408325,1.69,0.6,9.6,0.7,9.6
5.313734292984009,1.7,0.6,9.6,0.6,9.6
5.388734579086304,1.68,0.6,9.6,0.7,9.6
5.4634339809417725,1.69,0.6,9.6,0.7,9.6
5.538357257843018,1.66,0.6,9.6,0.7,9.6
5.61329460144043,1.68,0.6,9.6,0.7,9.6
5.688716650009155,1.67,0.6,9.6,0.7,9.6
5.763735771179199,1.68,0.6,9.6,0.7,9.6
5.839288711547852,1.68,0.6,9.6,0.7,9.6
5.913890600204468,1.65,0.6,9.6,0.6,9.6
5.989271402359009,1.67,0.6,9.6,0.7,9.6
6.063929080963135,1.68,0.6,9.6,0.7,9.6
6.138445138931274,1.68,0.6,9.6,0.7,9.6
6.214079141616821,1.69,0.6,9.6,0.7,9.6
6.288536787033081,1.69,0.6,9.6,0.7,9.6
6.363598585128784,1.69,0.6,9.6,0.7,9.6
6.438723564147949,1.69,0.6,9.6,0.6,9.6
6.513546466827393,1.68,0.6,9.6,0.7,9.6
6.588779449462891,1.69,0.6,9.9,0.8,10.0
6.6636340618133545,1.7,0.6,9.4,0.5,9.4
6.738743543624878,1.71,0.6,9.3,0.3,9.3
6.813725233078003,1.71,0.6,10.0,0.6,10.0
6.888005256652832,1.71,0.6,9.4,0.8,9.5
6.964405536651611,1.69,0.6,9.5,0.7,9.5
7.038788080215454,1.69,0.6,9.5,0.7,9.5
7.1142237186431885,1.72,0.6,9.4,0.5,9.4
7.188471794128418,1.73,0.6,9.6,0.7,9.6
7.263669490814209,1.68,0.6,9.5,0.7,9.5
7.339678525924683,1.7,0.6,9.4,0.4,9.4
7.414090156555176,1.7,0.7,9.5,0.4,9.5
7.488798379898071,1.71,0.6,9.6,0.6,9.6
7.563793420791626,1.7,0.6,9.5,0.8,9.6
7.638666152954102,1.71,0.5,9.6,0.8,9.6
7.714719533920288,1.69,0.6,9.2,0.6,9.2
7.78880763053894,1.68,0.6,9.5,0.6,9.5
7.864151477813721,1.7,0.6,9.7,0.7,9.7
7.939049005508423,1.71,0.6,9.2,0.6,9.2
8.013574838638306,1.7,0.6,9.5,0.4,9.5
8.08948016166687,1.71,0.6,9.6,0.5,9.6
8.164016246795654,1.71,0.6,9.4,0.5,9.4
8.238568782806396,1.68,0.6,9.7,0.6,9.7
8.313817501068115,1.7,0.6,9.7,0.6,9.7
8.40756869316101,1.7,0.6,10.0,0.8,10.0
8.482352495193481,1.68,0.6,9.9,0.7,9.9
8.557581424713135,1.68,0.5,9.7,0.8,9.7
8.63293719291687,1.7,0.6,9.8,0.8,9.9
8.707780838012695,1.69,0.6,9.2,0.7,9.2
8.782584190368652,1.73,0.6,9.7,0.7,9.7
8.857897996902466,1.71,0.6,9.4,0.7,9.4
8.931833267211914,1.68,0.6,9.8,0.7,9.8
9.0077223777771,1.7,0.6,9.8,0.8,9.9
9.082088947296143,1.67,0.6,9.3,0.7,9.3
9.158537864685059,1.69,0.6,9.8,0.5,9.8
9.232383966445923,1.69,0.6,9.8,0.7,9.8
9.307374715805054,1.71,0.6,9.7,0.7,9.7
9.38217830657959,1.7,0.6,9.4,0.7,9.4
9.457046747207642,1.71,0.6,9.4,0.5,9.4
9.532949924468994,1.71,0.6,9.6,0.7,9.6
9.607450246810913,1.69,0.6,9.3,0.5,9.3
9.682957887649536,1.7,0.6,9.8,0.7,9.8
9.757875204086304,1.7,0.6,9.8,0.7,9.8
9.832859754562378,1.67,0.5,9.7,0.7,9.7
9.907423973083496,1.71,0.6,9.6,0.8,9.7
9.982410669326782,1.69,0.6,9.8,0.4,9.8
10.058279991149902,1.69,0.6,9.4,0.7,9.4
10.132125854492188,1.69,0.6,9.9,0.8,10.0
10.207523345947266,1.68,0.6,9.7,0.3,9.7
10.283060550689697,1.71,0.6,9.6,0.7,9.6
10.35768175125122,1.7,0.6,10.0,0.9,10.1
10.432678461074829,1.69,0.6,9.3,0.3,9.3
10.507633686065674,1.69,0.6,9.5,0.7,9.5
10.583144664764404,1.67,0.6,9.1,0.7,9.1
10.657257795333862,1.67,0.6,9.7,0.8,9.8
10.732353687286377,1.72,0.6,9.7,0.6,9.7
10.808166980743408,1.71,0.7,10.0,0.5,10.0
10.883023500442505,1.72,0.5,9.7,0.8,9.7
10.958105325698853,1.69,0.6,9.5,0.7,9.5
11.033281326293945,1.67,0.6,9.7,0.7,9.7
11.10732388496399,1.68,0.6,9.5,0.9,9.6
11.181974172592163,1.68,0.6,9.8,0.7,9.8
11.258107662200928,1.7,0.6,9.6,0.6,9.6
11.332802057266235,1.69,0.6,9.9,0.8,10.0
11.408260822296143,1.71,0.6,9.5,0.5,9.5
11.483119249343872,1.7,0.6,9.5,0.5,9.5
11.558140993118286,1.69,0.7,9.0,0.4,9.0
11.632981061935425,1.68,0.6,9.7,0.6,9.7
11.70789647102356,1.68,0.6,9.8,0.7,9.8
11.783082723617554,1.69,0.7,9.9,0.7,9.9
11.85696029663086,1.7,0.6,9.8,0.7,9.8
11.93240737915039,1.7,0.5,9.5,0.8,9.5
12.007674217224121,1.67,0.6,9.8,0.8,9.9
12.082500696182251,1.7,0.6,9.2,0.5,9.2
12.15798044204712,1.7,0.6,9.7,0.6,9.7
12.232728242874146,1.69,0.6,9.3,0.8,9.4
12.307464838027954,1.72,0.6,9.8,0.8,9.9
12.382825374603271,1.7,0.6,9.8,0.4,9.8
12.457085609436035,1.68,0.6,9.7,0.7,9.7
12.532939910888672,1.67,0.6,9.9,0.7,9.9
12.607831954956055,1.68,0.6,9.4,0.5,9.4
12.683146476745605,1.7,0.6,9.5,0.6,9.5
12.757797718048096,1.69,0.6,9.2,0.5,9.2
12.833156824111938,1.71,0.6,9.4,0.5,9.4
12.907848596572876,1.69,0.6,9.6,0.5,9.6
12.982487678527832,1.69,0.5,9.3,0.7,9.3
13.05767273902893,1.68,0.5,9.8,0.8,9.8
13.13226842880249,1.71,0.6,9.7,0.5,9.7
13.207421779632568,1.69,0.6,9.3,0.5,9.3
13.283262491226196,1.72,0.6,9.9,0.8,10.0
13.357439279556274,1.71,0.6,9.6,0.7,9.6
13.43348217010498,1.73,0.6,9.7,0.7,9.7
13.507359504699707,1.7,0.5,9.2,0.8,9.2
13.583053827285767,1.68,0.6,9.6,0.8,9.7
13.657247543334961,1.68,0.5,9.7,0.8,9.7
13.733132123947144,1.69,0.6,9.6,0.4,9.6
13.80693531036377,1.68,0.6,9.8,0.7,9.8
13.88304591178894,1.69,0.6,9.7,0.8,9.8
13.957551717758179,1.7,0.6,9.9,0.7,9.9
14.032131910324097,1.68,0.6,9.4,0.5,9.4
14.108172416687012,1.7,0.6,9.5,0.7,9.5
14.182978630065918,1.68,0.6,9.2,0.6,9.2
14.25802493095398,1.71,0.6,9.5,0.6,9.5
14.332698106765747,1.69,0.6,9.6,0.5,9.6
14.407895803451538,1.69,0.7,9.3,0.4,9.3
14.482840061187744,1.69,0.6,9.9,0.8,10.0
14.558029651641846,1.71,0.6,9.6,0.7,9.6
14.632709980010986,1.72,0.6,9.2,0.7,9.2
14.708096504211426,1.71,0.6,10.0,1.0,10.1
14.782670736312866,1.7,0.6,9.7,0.5,9.7
14.85797381401062,1.71,0.6,9.5,0.6,9.5
14.933022737503052,1.68,0.6,9.5,0.4,9.5
15.007268905639648,1.68,0.6,9.5,0.5,9.5
15.08287501335144,1.68,0.6,9.5,0.5,9.5
15.157967567443848,1.67,0.6,9.6,0.5,9.6
15.233150005340576,1.68,0.6,9.6,0.7,9.6
15.307600736618042,1.69,0.6,9.6,0.8,9.7
15.383068084716797,1.68,0.6,9.8,0.7,9.8
15.458276271820068,1.68,0.5,9.4,0.9,9.5
15.533009052276611,1.67,0.6,9.6,0.4,9.6
15.60779595375061,1.66,0.6,9.6,0.7,9.6
15.68265700340271,1.69,0.6,9.6,0.8,9.7
15.757554292678833,1.68,0.6,9.6,0.8,9.7
15.833134412765503,1.69,0.6,9.6,0.8,9.7
15.908049821853638,1.69,0.5,9.6,0.7,9.6
15.983208179473877,1.7,0.6,9.7,0.8,9.8
16.057607889175415,1.7,0.6,9.5,0.3,9.5
16.133085250854492,1.69,0.6,9.6,0.8,9.7
16.20717978477478,1.67,0.6,9.6,0.8,9.7
16.282870292663574,1.67,0.6,9.6,0.5,9.6
16.35782027244568,1.66,0.7,9.5,0.5,9.5
16.432983875274658,1.66,0.6,9.6,0.6,9.6
16.508238315582275,1.67,0.6,9.7,0.7,9.7
16.582626342773438,1.66,0.6,9.6,0.4,9.6
16.65828514099121,1.67,0.6,9.6,0.7,9.6
16.73226499557495,1.69,0.6,9.6,0.6,9.6
16.807305812835693,1.65,0.6,9.6,0.5,9.6
16.883312225341797,1.67,0.6,9.6,0.5,9.6
16.95818281173706,1.71,0.6,9.4,0.8,9.5
17.032845497131348,1.7,0.5,9.8,0.8,9.8
17.108009815216064,1.69,0.7,9.5,0.3,9.5
17.182463884353638,1.67,0.6,9.6,0.8,9.7
17.25742530822754,1.69,0.6,9.6,0.8,9.7
17.33322548866272,1.66,0.6,9.6,0.8,9.7
17.407958269119263,1.7,0.6,9.6,0.8,9.7
17.4825439453125,1.7,0.6,9.4,0.8,9.5
17.557945728302002,1.69,0.6,9.8,0.8,9.9
17.632386922836304,1.71,0.7,9.6,0.3,9.6
17.708089351654053,1.68,0.6,9.6,0.8,9.7
17.783075094223022,1.69,0.6,9.6,0.8,9.7
17.858246564865112,1.7,0.6,9.6,0.8,9.7
17.93221950531006,1.7,0.6,9.6,0.8,9.7
18.008429527282715,1.72,0.6,9.8,0.8,9.9
18.082836151123047,1.67,0.6,9.5,0.8,9.6
18.157130241394043,1.7,0.6,9.7,0.8,9.8
18.233349084854126,1.68,0.6,9.6,0.8,9.7
18.30754852294922,1.7,0.6,9.6,0.8,9.7
18.38295578956604,1.7,0.6,9.6,0.8,9.7
18.458287239074707,1.71,0.6,9.6,0.7,9.6
18.533061504364014,1.72,0.6,9.4,0.4,9.4
18.607782125473022,1.71,0.6,9.6,0.8,9.7
18.682585954666138,1.69,0.6,9.6,0.8,9.7
18.757835865020752,1.69,0.6,9.6,0.8,9.7
18.83335828781128,1.69,0.6,9.6,0.8,9.7
18.908576726913452,1.69,0.6,9.6,0.8,9.7
18.982469081878662,1.7,0.6,9.6,0.7,9.6
19.05749201774597,1.66,0.6,9.7,0.8,9.8
19.13316297531128,1.7,0.6,9.6,0.4,9.6
19.207130432128906,1.69,0.6,9.6,0.4,9.6
19.283634901046753,1.7,0.7,9.5,0.4,9.5
19.35741114616394,1.72,0.6,9.6,0.5,9.6
19.43284296989441,1.72,0.6,9.6,0.8,9.7
19.508353233337402,1.7,0.6,9.6,0.7,9.6
19.58282470703125,1.71,0.6,9.4,0.6,9.4
19.658005475997925,1.69,0.6,9.5,0.4,9.5
19.732267379760742,1.68,0.6,9.6,0.4,9.6
19.807485818862915,1.7,0.6,9.6,0.5,9.6
19.88269805908203,1.71,0.6,9.6,0.7,9.6
19.976683616638184,1.7,0.6,9.6,0.5,9.6
20.05186438560486,1.72,0.6,9.3,0.3,9.3
20.126668453216553,1.71,0.6,9.7,0.8,9.8
20.201592922210693,1.67,0.6,9.6,0.8,9.7
20.277695655822754,1.69,0.6,9.6,0.8,9.7
20.352498531341553,1.67,0.6,9.6,0.8,9.7
20.426273822784424,1.69,0.6,9.6,0.8,9.7
20.502123594284058,1.69,0.6,9.6,0.6,9.6
20.576987981796265,1.68,0.7,9.2,0.5,9.2
20.652103900909424,1.7,0.6,9.6,0.5,9.6
20.726313591003418,1.69,0.6,9.6,0.7,9.6
20.802198886871338,1.67,0.6,9.6,0.7,9.6
20.876516819000244,1.65,0.6,9.6,0.5,9.6
20.951189756393433,1.69,0.6,9.6,0.6,9.6
21.026427745819092,1.67,0.6,9.6,0.7,9.6
21.101579427719116,1.68,0.6,9.8,0.8,9.9
21.177053213119507,1.7,0.6,9.5,0.5,9.5
21.251786470413208,1.67,0.6,9.6,0.6,9.6
21.32634401321411,1.71,0.6,9.6,0.7,9.6
21.401867628097534,1.68,0.6,9.6,0.8,9.7
21.47673010826111,1.69,0.6,9.6,0.6,9.6
21.57063317298889,1.71,0.6,9.6,0.7,9.6
21.645062685012817,1.72,0.6,9.8,0.8,9.9
21.720936059951782,1.68,0.6,9.6,0.5,9.6
21.79580044746399,1.68,0.6,9.6,0.6,9.6
21.870768547058105,1.69,0.6,9.6,0.8,9.7
21.945338010787964,1.73,0.6,9.6,0.7,9.6
22.02019453048706,1.72,0.6,9.6,0.7,9.6
22.09539246559143,1.71,0.6,9.6,0.6,9.6
22.170490026474,1.71,0.6,9.6,0.7,9.6
22.245367765426636,1.71,0.6,9.6,0.6,9.6
22.32080626487732,1.72,0.6,9.6,0.6,9.6
22.395188093185425,1.69,0.6,9.6,0.7,9.6
22.470017194747925,1.69,0.6,9.6,0.7,9.6
22.54540514945984,1.72,0.6,9.6,0.7,9.6
22.621278524398804,1.69,0.6,9.6,0.7,9.6
22.69507908821106,1.71,0.7,9.8,0.6,9.8
22.770037174224854,1.7,0.5,9.6,0.8,9.6
22.864626169204712,1.68,0.6,9.6,0.8,9.7
22.93909525871277,1.67,0.6,9.6,0.6,9.6
23.014472246170044,1.7,0.6,9.6,0.7,9.6
23.088851928710938,1.7,0.6,9.6,0.6,9.6
23.164236307144165,1.68,0.6,9.6,0.6,9.6
23.258297204971313,1.68,0.6,9.6,0.6,9.6
23.333045721054077,1.69,0.6,9.6,0.7,9.6
23.4082088470459,1.69,0.6,9.6,0.6,9.6
23.48300838470459,1.67,0.6,9.6,0.6,9.6
23.558764934539795,1.7,0.6,9.6,0.7,9.6
23.63309144973755,1.68,0.6,9.6,0.6,9.6
23.708069801330566,1.69,0.6,9.6,0.7,9.6
23.78377914428711,1.67,0.6,9.5,0.7,9.5
23.85805034637451,1.7,0.6,9.8,0.8,9.9
23.932881832122803,1.69,0.7,9.5,0.4,9.5
24.007545471191406,1.69,0.6,9.5,0.4,9.5
24.08367657661438,1.69,0.6,9.5,0.4,9.5
24.15853214263916,1.71,0.6,9.6,0.6,9.6
24.232830047607422,1.7,0.6,9.6,0.8,9.7
24.308316707611084,1.67,0.6,9.6,0.6,9.6
24.38275456428528,1.68,0.6,9.6,0.6,9.6
24.457911014556885,1.68,0.6,9.6,0.6,9.6
24.533297061920166,1.7,0.6,9.6,0.6,9.6
24.607829332351685,1.71,0.6,9.6,0.6,9.6
24.68407964706421,1.71,0.6,9.6,0.7,9.6
24.758045196533203,1.69,0.6,9.6,0.7,9.6
24.833437204360962,1.67,0.7,9.2,0.3,9.2
24.908508777618408,1.71,0.6,9.9,0.8,10.0
24.983421564102173,1.69,0.5,9.7,0.8,9.7
25.058509349822998,1.72,0.6,9.6,0.6,9.6
25.132828950881958,1.7,0.6,9.5,0.4,9.5
25.20829439163208,1.71,0.6,9.9,0.7,9.9
25.283875226974487,1.72,0.5,9.4,0.8,9.4
25.3579843044281,1.72,0.5,9.5,0.8,9.5
25.433346033096313,1.69,0.6,9.6,0.8,9.7
25.50770330429077,1.69,0.6,9.7,0.8,9.8
25.58335256576538,1.69,0.6,9.2,0.6,9.2
25.65828561782837,1.7,0.6,9.4,0.6,9.4
25.752305507659912,1.7,0.6,9.6,0.8,9.7
25.826797485351562,1.71,0.5,9.5,0.8,9.5
25.921570777893066,1.72,0.7,9.2,0.4,9.2
25.9953293800354,1.69,0.6,9.4,0.7,9.4
26.070728063583374,1.69,0.6,9.6,0.8,9.7
26.145670652389526,1.68,0.6,9.7,0.8,9.8
26.220378637313843,1.7,0.6,9.5,0.7,9.5
26.29627251625061,1.7,0.6,9.9,0.7,9.9
26.37102460861206,1.71,0.6,9.6,0.7,9.6
26.445459842681885,1.68,0.6,9.4,0.4,9.4
26.520023584365845,1.7,0.6,9.5,0.5,9.5
26.596105813980103,1.67,0.6,9.5,0.5,9.5
26.6704580783844,1.69,0.6,9.6,0.5,9.6
26.745898962020874,1.71,0.6,9.6,0.7,9.6
26.820594310760498,1.7,0.6,9.6,0.7,9.6
26.895056009292603,1.69,0.6,9.6,0.7,9.6
26.97064781188965,1.69,0.6,9.4,0.7,9.4
27.046106100082397,1.68,0.5,9.9,0.8,9.9
27.12083125114441,1.68,0.6,9.7,0.5,9.7
27.195061683654785,1.71,0.6,9.6,0.6,9.6
27.289153814315796,1.69,0.6,9.7,0.8,9.8
27.364267587661743,1.69,0.6,9.4,0.5,9.4
27.439464330673218,1.69,0.6,9.7,0.5,9.7
27.514389276504517,1.69,0.6,9.7,0.8,9.8
27.58961296081543,1.69,0.6,9.7,0.8,9.8
27.664385557174683,1.68,0.6,9.6,0.7,9.6
27.739375829696655,1.72,0.6,9.7,0.7,9.7
27.814563512802124,1.7,0.6,9.4,0.7,9.4
27.889294862747192,1.72,0.6,9.5,0.8,9.6
27.964903354644775,1.69,0.6,9.6,0.8,9.7
28.039880514144897,1.71,0.5,9.8,0.8,9.8
28.11494016647339,1.72,0.6,9.4,0.7,9.4
28.190059423446655,1.7,0.6,9.6,0.8,9.7
28.263896703720093,1.69,0.6,9.7,0.8,9.8
28.339454174041748,1.71,0.6,9.7,0.8,9.8
28.414817571640015,1.69,0.6,10.0,0.8,10.0
28.48956298828125,1.68,0.6,9.2,0.5,9.2
28.564486026763916,1.69,0.6,9.4,0.7,9.4
28.6390860080719,1.69,0.6,9.7,0.8,9.8
28.71463918685913,1.69,0.6,9.6,0.5,9.6
28.7898952960968,1.69,0.6,9.7,0.8,9.8
28.864204168319702,1.7,0.6,9.7,0.7,9.7
28.93948721885681,1.71,0.6,9.6,0.6,9.6
29.014302492141724,1.72,0.6,9.6,0.7,9.6
29.08990478515625,1.71,0.6,9.6,0.8,9.7
29.165039777755737,1.72,0.5,10.0,1.0,10.1
29.23928999900818,1.71,0.6,9.3,0.5,9.3
29.313929319381714,1.69,0.6,9.4,0.6,9.4
29.3892343044281,1.71,0.6,9.7,0.8,9.8
29.483614444732666,1.69,0.7,9.5,0.7,9.6
29.558106899261475,1.66,0.6,9.4,0.6,9.4
29.633395671844482,1.69,0.6,9.4,0.6,9.4
29.708794832229614,1.68,0.6,9.7,0.8,9.8
29.783669471740723,1.69,0.6,9.7,0.8,9.8
29.85823392868042,1.68,0.6,9.3,0.4,9.3
29.9519624710083,1.69,0.6,9.2,0.3,9.2
30.026657819747925,1.69,0.6,9.7,0.8,9.8
30.102070569992065,1.67,0.6,9.7,0.8,9.8
30.177496433258057,1.67,0.5,9.8,0.8,9.8
30.252036571502686,1.69,0.6,9.1,0.4,9.1
30.326761484146118,1.68,0.6,9.7,0.8,9.8
30.401930570602417,1.7,0.6,9.7,0.5,9.7
30.47649312019348,1.72,0.6,9.7,0.5,9.7
30.5526225566864,1.69,0.6,9.6,0.7,9.6
30.627337217330933,1.69,0.5,9.9,1.1,10.0
30.70149874687195,1.66,0.5,9.5,0.8,9.5
30.777467012405396,1.69,0.6,9.4,0.5,9.4
30.852097749710083,1.65,0.6,9.5,0.6,9.5
30.927220344543457,1.68,0.6,9.5,0.6,9.5
31.001753091812134,1.69,0.6,9.7,0.8,9.8
31.07658624649048,1.68,0.6,9.6,0.6,9.6
31.152783393859863,1.68,0.6,9.7,0.7,9.7
31.228550672531128,1.67,0.6,9.6,0.7,9.6
31.301520109176636,1.66,0.6,9.6,0.7,9.6
31.376664638519287,1.69,0.7,9.2,0.3,9.2
31.452226400375366,1.66,0.6,9.9,0.8,10.0
31.527573823928833,1.69,0.6,9.7,0.8,9.8
31.60189652442932,1.7,0.6,9.5,0.3,9.5
31.676971673965454,1.68,0.6,9.5,0.6,9.5
31.752739667892456,1.68,0.6,9.3,0.5,9.3
31.82672882080078,1.68,0.7,9.9,0.7,9.9
31.901782751083374,1.69,0.6,9.7,0.7,9.7
31.977643728256226,1.67,0.6,9.6,0.8,9.7
32.052820920944214,1.69,0.5,9.6,0.8,9.6
32.127273082733154,1.69,0.6,9.4,0.7,9.4
32.20183825492859,1.68,0.6,9.9,0.8,10.0
32.2765691280365,1.68,0.6,9.7,0.3,9.7
32.35289001464844,1.7,0.6,9.6,0.7,9.6
32.427196741104126,1.68,0.6,9.6,0.8,9.7
32.50234079360962,1.69,0.6,9.4,0.7,9.4
32.577290296554565,1.69,0.6,9.3,0.4,9.3
32.65223240852356,1.7,0.6,9.6,0.6,9.6
32.72665500640869,1.7,0.6,9.6,0.6,9.6
32.80211043357849,1.68,0.6,9.6,0.5,9.6
32.87709140777588,1.68,0.6,10.0,0.8,10.0
32.95227408409119,1.69,0.6,9.5,0.7,9.5
33.045833587646484,1.68,0.6,9.4,0.6,9.4
33.120633125305176,1.69,0.6,9.6,0.7,9.6
33.19645380973816,1.68,0.6,9.6,0.8,9.7
33.2709059715271,1.7,0.6,9.6,0.7,9.6
33.34642004966736,1.68,0.6,9.6,0.7,9.6
33.421181440353394,1.69,0.6,9.6,0.6,9.6
33.495582580566406,1.69,0.6,9.6,0.6,9.6
33.571309328079224,1.67,0.5,9.9,0.7,9.9
33.64584708213806,1.69,0.5,9.3,0.8,9.3
33.72148084640503,1.68,0.6,9.5,0.8,9.6
33.795610189437866,1.73,0.6,9.6,0.8,9.7
33.87156558036804,1.7,0.6,9.7,0.8,9.8
33.9462788105011,1.72,0.6,10.0,0.7,10.0
34.02087688446045,1.69,0.6,9.8,0.7,9.8
34.09588146209717,1.68,0.6,9.4,0.8,9.5
34.171186685562134,1.71,0.6,9.5,0.8,9.6
34.245218992233276,1.74,0.6,9.6,0.8,9.7
34.320698976516724,1.71,0.6,9.5,0.7,9.5
34.39612078666687,1.68,0.6,9.9,0.8,10.0
34.470611572265625,1.69,0.6,9.7,0.7,9.7
34.54597091674805,1.69,0.6,9.6,0.8,9.7
34.620861768722534,1.69,0.6,9.5,0.6,9.5
34.71442914009094,1.7,0.6,9.3,0.4,9.3
34.790005922317505,1.68,0.6,9.6,0.8,9.7
34.864830017089844,1.71,0.6,9.7,0.8,9.8
34.93946409225464,1.69,0.6,9.6,0.4,9.6
35.01441192626953,1.7,0.6,9.8,0.6,9.8
35.08957600593567,1.69,0.5,9.3,0.8,9.3
35.16486883163452,1.71,0.6,9.6,0.8,9.7
35.23965287208557,1.68,0.7,9.6,0.3,9.6
35.315014123916626,1.68,0.6,9.7,0.8,9.8
35.389575481414795,1.7,0.6,9.7,0.7,9.7
35.464006185531616,1.71,0.7,9.6,0.4,9.6
35.5395667552948,1.71,0.6,9.6,0.6,9.6
35.61478662490845,1.7,0.6,9.6,0.6,9.6
35.68950653076172,1.7,0.6,9.6,0.6,9.6
35.76467037200928,1.69,0.6,9.7,0.4,9.7
35.83951497077942,1.68,0.6,9.8,0.8,9.9
35.91484189033508,1.68,0.5,9.6,0.8,9.6
35.98980379104614,1.7,0.5,9.5,0.8,9.5
36.06486797332764,1.67,0.6,9.5,0.5,9.5
36.14002060890198,1.69,0.6,9.6,0.7,9.6
36.214738845825195,1.68,0.6,9.4,0.4,9.4
36.289852142333984,1.68,0.6,9.5,0.4,9.5
36.3646399974823,1.69,0.6,9.5,0.4,9.5
36.44006967544556,1.7,0.7,9.3,0.5,9.3
36.514227628707886,1.69,0.6,9.7,0.7,9.7
36.58955645561218,1.7,0.6,9.8,0.8,9.9
36.66490650177002,1.67,0.6,9.7,0.8,9.8
36.73943328857422,1.69,0.6,9.5,0.5,9.5
36.81512498855591,1.67,0.7,9.9,0.3,9.9
36.88997197151184,1.66,0.6,9.7,0.7,9.7
36.96458911895752,1.68,0.6,9.5,0.8,9.6
37.04022693634033,1.67,0.6,9.5,0.8,9.6
37.13349723815918,1.69,0.7,9.5,0.5,9.5
37.20845580101013,1.68,0.6,9.0,0.4,9.0
37.28419494628906,1.69,0.6,9.6,0.8,9.7
37.37715530395508,1.66,0.6,9.4,0.5,9.4
37.4700562953949,1.68,0.6,9.5,0.7,9.5
37.54586482048035,1.66,0.6,9.6,0.5,9.6
37.62096095085144,1.67,0.6,9.6,0.7,9.6
37.696643590927124,1.68,0.6,9.6,0.7,9.6
37.77098298072815,1.69,0.6,9.6,0.6,9.6
37.84717011451721,1.69,0.6,9.6,0.6,9.6
37.92098116874695,1.69,0.6,9.8,0.6,9.8
37.99578070640564,1.71,0.5,9.3,0.8,9.3
38.070770502090454,1.71,0.6,9.6,0.8,9.7
38.14621686935425,1.72,0.6,9.7,0.8,9.8
38.22084093093872,1.72,0.6,9.7,0.7,9.7
38.29597043991089,1.69,0.6,9.3,0.5,9.3
38.371660470962524,1.69,0.6,9.5,0.6,9.5
38.445645332336426,1.71,0.6,9.6,0.7,9.6
38.52123022079468,1.71,0.6,9.7,0.8,9.8
38.59671688079834,1.68,0.6,9.6,0.7,9.6
38.67162299156189,1.69,0.6,10.0,0.8,10.0
38.745487689971924,1.67,0.6,9.4,0.4,9.4
38.82029604911804,1.7,0.6,9.4,0.6,9.4
38.91455435752869,1.69,0.6,9.7,0.8,9.8
38.990105390548706,1.69,0.6,9.6,0.8,9.7
39.06524586677551,1.7,0.6,9.6,0.8,9.7
39.139769315719604,1.69,0.6,9.6,0.6,9.6
39.21426057815552,1.69,0.6,9.6,0.7,9.6
39.28994679450989,1.71,0.6,9.6,0.6,9.6
39.3649628162384,1.68,0.6,9.6,0.6,9.6
39.44001865386963,1.72,0.6,9.6,0.7,9.6
39.514796018600464,1.69,0.6,9.6,0.7,9.6
39.59030485153198,1.71,0.6,9.6,0.7,9.6
39.6649706363678,1.66,0.6,9.6,0.7,9.6
39.73924446105957,1.68,0.6,9.6,0.7,9.6
39.81497764587402,1.69,0.7,10.0,0.5,10.0
39.89007592201233,1.67,0.5,9.7,1.1,9.8
39.964487075805664,1.7,0.5,9.5,0.9,9.6
40.03945302963257,1.68,0.6,9.5,0.6,9.5
40.115015268325806,1.67,0.6,9.6,0.7,9.6
40.208781480789185,1.7,0.6,9.6,0.8,9.7
40.28415131568909,1.68,0.6,9.6,0.7,9.6
40.358556032180786,1.69,0.6,9.6,0.5,9.6
40.45222568511963,1.7,0.6,9.6,0.6,9.6
40.5277795791626,1.69,0.6,9.6,0.7,9.6
40.60237121582031,1.67,0.6,9.6,0.7,9.6
40.67756795883179,1.67,0.6,9.6,0.6,9.6
40.75209021568298,1.66,0.6,9.6,0.7,9.6
40.82725930213928,1.66,0.6,9.6,0.7,9.6
40.90255427360535,1.65,0.6,9.6,0.7,9.6
40.976908922195435,1.66,0.6,9.6,0.7,9.6
41.052491188049316,1.67,0.6,9.3,0.6,9.3
41.12722706794739,1.68,0.6,9.6,0.7,9.6
41.20251727104187,1.69,0.6,9.6,0.6,9.6
41.29587483406067,1.69,0.6,9.6,0.7,9.6
41.371493339538574,1.67,0.6,9.6,0.7,9.6
41.44579029083252,1.69,0.6,9.6,0.7,9.6
41.52139377593994,1.69,0.6,9.6,0.7,9.6
41.59616303443909,1.67,0.6,9.6,0.7,9.6
41.67084217071533,1.69,0.6,9.6,0.7,9.6
41.74545741081238,1.68,0.6,9.6,0.7,9.6
41.82086992263794,1.66,0.6,9.6,0.7,9.6
41.895493268966675,1.67,0.6,9.6,0.7,9.6
41.97144937515259,1.67,0.6,9.6,0.7,9.6
42.04651618003845,1.68,0.6,9.6,0.7,9.6
42.12114977836609,1.68,0.6,9.6,0.7,9.6
42.1961829662323,1.67,0.6,10.0,0.8,10.0
42.271018981933594,1.69,0.7,9.5,0.4,9.5
42.346529960632324,1.65,0.6,9.5,0.6,9.5
42.42131567001343,1.67,0.6,9.6,0.6,9.6
42.49644112586975,1.69,0.5,9.6,0.8,9.6
42.58982014656067,1.67,0.6,9.6,0.6,9.6
42.66513538360596,1.68,0.6,9.6,0.8,9.7
42.74057459831238,1.69,0.6,9.6,0.7,9.6
42.83347177505493,1.7,0.6,9.6,0.6,9.6
42.90907406806946,1.69,0.6,9.6,0.7,9.6
42.98350405693054,1.68,0.6,9.6,0.7,9.6
43.058478593826294,1.68,0.6,9.6,0.7,9.6
43.133848428726196,1.7,0.6,9.6,0.7,9.6
43.20867657661438,1.68,0.6,9.6,0.7,9.6
43.28395318984985,1.7,0.7,9.9,0.4,9.9
43.35853886604309,1.72,0.6,9.7,0.8,9.8
43.43369817733765,1.69,0.5,9.6,0.8,9.6
43.5089156627655,1.7,0.6,9.5,0.8,9.6
43.58379101753235,1.7,0.6,9.6,0.8,9.7
43.659507513046265,1.69,0.6,9.6,0.7,9.6
43.734357595443726,1.69,0.6,9.6,0.5,9.6
43.80941677093506,1.71,0.6,9.6,0.7,9.6
43.88335847854614,1.7,0.6,9.6,0.6,9.6
43.95840835571289,1.7,0.6,9.6,0.7,9.6
44.03345561027527,1.69,0.6,9.6,0.7,9.6
44.14580750465393,1.72,0.6,9.6,0.7,9.6
44.221516132354736,1.7,0.6,9.6,0.7,9.6
44.296693563461304,1.7,0.6,9.6,0.7,9.6
44.371078968048096,1.7,0.6,9.6,0.7,9.6
44.44588041305542,1.71,0.6,9.1,0.6,9.1
44.5208306312561,1.68,0.6,9.5,0.6,9.5
44.595853090286255,1.7,0.6,9.6,0.6,9.6
44.67139172554016,1.72,0.6,9.7,0.5,9.7
44.7461371421814,1.68,0.6,9.6,0.4,9.6
44.82125282287598,1.72,0.6,9.6,0.5,9.6
44.89554286003113,1.68,0.6,9.6,0.8,9.7
44.97104454040527,1.69,0.6,9.6,0.6,9.6
45.0462167263031,1.71,0.6,9.6,0.6,9.6
45.12120962142944,1.68,0.6,9.6,0.6,9.6
45.196452140808105,1.71,0.6,9.6,0.7,9.6
45.29013204574585,1.7,0.6,9.6,0.7,9.6
45.365246057510376,1.69,0.6,9.6,0.7,9.6
45.44010639190674,1.71,0.6,9.6,0.7,9.6
45.51496481895447,1.69,0.6,9.6,0.7,9.6
45.590160846710205,1.7,0.6,8.9,0.4,8.9
45.665324211120605,1.72,0.6,9.6,0.8,9.7
45.740304470062256,1.68,0.6,9.8,0.8,9.9
45.81536388397217,1.71,0.6,9.7,0.6,9.7
45.88997840881348,1.67,0.6,9.6,0.6,9.6
45.964582443237305,1.7,0.6,9.6,0.8,9.7
46.04018712043762,1.68,0.6,9.6,0.7,9.6
46.11550188064575,1.69,0.6,9.6,0.7,9.6
46.19061303138733,1.68,0.6,9.6,0.6,9.6
46.26560926437378,1.69,0.6,9.6,0.7,9.6
46.33997058868408,1.71,0.6,9.6,0.7,9.6
46.41607737541199,1.69,0.6,9.6,0.7,9.6
46.490055322647095,1.7,0.6,9.6,0.7,9.6
46.56541681289673,1.68,0.6,9.6,0.7,9.6
46.639973878860474,1.71,0.5,9.6,0.7,9.6
46.715445041656494,1.69,0.6,9.5,0.8,9.6
46.80852508544922,1.69,0.7,9.6,0.3,9.6
46.883761167526245,1.7,0.6,9.5,0.7,9.5
46.95901107788086,1.7,0.6,9.6,0.8,9.7
47.03404235839844,1.72,0.6,9.6,0.8,9.7
47.10876536369324,1.7,0.6,9.6,0.8,9.7
47.184114933013916,1.72,0.6,9.6,0.6,9.6
47.25825643539429,1.69,0.6,9.6,0.5,9.6
47.334001302719116,1.68,0.6,9.6,0.7,9.6
47.408875942230225,1.7,0.6,9.6,0.8,9.7
47.48348617553711,1.7,0.6,9.6,0.7,9.6
47.55885100364685,1.71,0.6,9.6,0.7,9.6
47.633878231048584,1.7,0.6,9.6,0.7,9.6
47.70886015892029,1.7,0.6,9.6,0.7,9.6
47.78426957130432,1.7,0.6,10.0,0.7,10.0
47.8584930896759,1.69,0.5,9.3,0.8,9.3
47.93330955505371,1.7,0.6,9.5,0.8,9.6
48.02725529670715,1.69,0.6,9.6,0.6,9.6
48.10198187828064,1.7,0.6,9.6,0.6,9.6
48.177579402923584,1.68,0.6,9.6,0.7,9.6
48.25255274772644,1.69,0.6,9.6,0.7,9.6
48.346256256103516,1.71,0.6,9.6,0.7,9.6
48.4214985370636,1.69,0.6,9.6,0.7,9.6
48.496877908706665,1.69,0.6,9.6,0.7,9.6
48.57153367996216,1.69,0.6,9.6,0.7,9.6
48.64617609977722,1.68,0.6,9.6,0.7,9.6
48.72125220298767,1.7,0.6,9.6,0.7,9.6
48.79641795158386,1.69,0.6,9.6,0.7,9.6
48.87157392501831,1.69,0.6,9.5,0.7,9.5
48.94592881202698,1.69,0.6,9.7,0.9,9.8
49.02155065536499,1.69,0.6,9.8,0.6,9.8
49.09638285636902,1.67,0.6,9.7,0.8,9.8
49.171475410461426,1.67,0.6,9.7,0.8,9.8
49.245720863342285,1.69,0.6,9.7,0.8,9.8
49.32150483131409,1.72,0.6,9.6,0.8,9.7
49.39613652229309,1.71,0.6,9.6,0.8,9.7
49.47230911254883,1.72,0.6,9.6,0.7,9.6
49.546600341796875,1.7,0.6,9.6,0.6,9.6
49.621535539627075,1.7,0.6,9.6,0.6,9.6
49.71571707725525,1.7,0.6,9.6,0.7,9.6
49.790618658065796,1.71,0.6,9.6,0.7,9.6
49.86510133743286,1.7,0.6,9.6,0.7,9.6
49.93958878517151,1.69,0.6,9.6,0.7,9.6
50.015292167663574,1.69,0.7,10.1,0.5,10.1
50.08992862701416,1.7,0.6,9.5,0.8,9.6
50.16494631767273,1.71,0.5,9.5,0.8,9.5
50.24011421203613,1.7,0.6,9.5,0.8,9.6
50.31498599052429,1.7,0.6,9.5,0.6,9.5
50.390379428863525,1.69,0.6,9.6,0.6,9.6
50.46483850479126,1.69,0.6,9.6,0.6,9.6
50.54074168205261,1.7,0.6,9.6,0.8,9.7
50.61561632156372,1.69,0.6,9.6,0.7,9.6
50.69028902053833,1.7,0.6,9.6,0.7,9.6
50.765249490737915,1.67,0.6,9.6,0.6,9.6
50.83998513221741,1.68,0.6,9.6,0.7,9.6
50.915447473526,1.73,0.6,9.6,0.7,9.6
51.00854730606079,1.69,0.6,9.6,0.7,9.6
51.08357095718384,1.69,0.6,9.6,0.7,9.6
51.1593918800354,1.68,0.7,9.9,0.5,9.9
51.23389458656311,1.71,0.6,9.8,0.8,9.9
51.30936002731323,1.7,0.5,9.5,0.8,9.5
51.38389992713928,1.69,0.6,9.6,0.8,9.7
51.459139585494995,1.71,0.6,9.6,0.7,9.6
51.53408336639404,1.72,0.6,9.6,0.5,9.6
51.609224796295166,1.7,0.6,9.6,0.7,9.6
51.684654712677,1.69,0.6,9.6,0.6,9.6
51.75926065444946,1.71,0.5,9.6,0.7,9.6
51.833903074264526,1.69,0.6,9.6,0.7,9.6
51.90889525413513,1.7,0.6,9.6,0.7,9.6
51.98395109176636,1.71,0.6,9.6,0.7,9.6
52.05889916419983,1.71,0.6,9.6,0.7,9.6
52.13449668884277,1.7,0.6,9.6,0.7,9.6
52.20913362503052,1.69,0.6,9.6,0.7,9.6
52.28389501571655,1.7,0.6,9.8,0.8,9.9
52.37792730331421,1.69,0.6,9.9,0.8,10.0
52.45249056816101,1.69,0.6,9.7,0.8,9.8
52.527944803237915,1.7,0.6,9.6,0.7,9.6
52.60272789001465,1.71,0.6,9.6,0.7,9.6
52.67807865142822,1.7,0.6,9.5,0.5,9.5
52.752869844436646,1.71,0.6,9.6,0.7,9.6
52.827239990234375,1.71,0.6,9.6,0.8,9.7
52.902958393096924,1.69,0.6,9.6,0.7,9.6
52.9783399105072,1.71,0.6,9.6,0.7,9.6
53.05279493331909,1.71,0.6,9.6,0.7,9.6
53.12746024131775,1.71,0.6,9.6,0.6,9.6
53.20303463935852,1.72,0.6,9.6,0.7,9.6
53.27795743942261,1.71,0.6,9.6,0.7,9.6
53.352484464645386,1.71,0.6,9.3,0.7,9.3
53.44679260253906,1.7,0.6,9.9,0.9,10.0
53.52164936065674,1.72,0.6,9.5,0.8,9.6
53.59713339805603,1.7,0.6,9.6,0.8,9.7
53.67199420928955,1.7,0.6,9.7,0.8,9.8
53.747031927108765,1.7,0.6,9.6,0.5,9.6
53.82143449783325,1.69,0.6,9.6,0.7,9.6
53.896040201187134,1.71,0.6,9.6,0.5,9.6
53.9715576171875,1.73,0.6,9.6,0.7,9.6
54.04651927947998,1.7,0.6,9.6,0.8,9.7
54.121416330337524,1.7,0.6,9.6,0.6,9.6
54.1963210105896,1.7,0.6,9.6,0.6,9.6
54.271106481552124,1.71,0.6,9.6,0.6,9.6
54.346285581588745,1.71,0.6,9.6,0.6,9.6
54.422160625457764,1.7,0.6,9.6,0.6,9.6
54.49707269668579,1.68,0.5,9.6,0.7,9.6
54.571195125579834,1.73,0.6,9.5,0.8,9.6
54.64595055580139,1.72,0.6,9.8,0.7,9.8
54.72161507606506,1.72,0.6,9.7,0.8,9.8
54.796295404434204,1.71,0.6,9.7,0.7,9.7
54.87179112434387,1.69,0.6,9.6,0.7,9.6
54.946614503860474,1.7,0.6,9.6,0.6,9.6
55.02121043205261,1.72,0.6,9.6,0.8,9.7
55.09677314758301,1.67,0.6,9.6,0.8,9.7
55.171873331069946,1.7,0.6,9.6,0.6,9.6
55.24664807319641,1.72,0.6,9.6,0.7,9.6
55.320513010025024,1.71,0.6,9.6,0.7,9.6
55.3971164226532,1.7,0.6,9.6,0.8,9.7
55.47139072418213,1.7,0.6,9.6,0.7,9.6
55.547278881073,1.7,0.6,9.6,0.7,9.6
55.62139940261841,1.71,0.5,9.7,0.7,9.7
55.69595766067505,1.69,0.5,9.3,0.8,9.3
55.771363258361816,1.7,0.6,9.7,0.7,9.7
55.84653973579407,1.71,0.6,9.8,0.8,9.9
55.9402174949646,1.69,0.6,9.5,0.8,9.6
56.01545071601868,1.7,0.6,9.6,0.8,9.7
56.09043622016907,1.69,0.6,9.6,0.7,9.6
56.16540455818176,1.7,0.6,9.6,0.5,9.6
56.24048042297363,1.7,0.6,9.7,0.8,9.8
56.33469295501709,1.7,0.6,9.6,0.6,9.6
56.40935444831848,1.71,0.6,9.6,0.7,9.6
56.48489737510681,1.69,0.6,9.6,0.7,9.6
56.558862924575806,1.7,0.6,9.6,0.7,9.6
56.63407588005066,1.71,0.6,9.6,0.6,9.6
56.70938301086426,1.7,0.6,9.6,0.7,9.6
56.78471374511719,1.73,0.6,9.3,0.7,9.3
56.85906624794006,1.69,0.6,9.3,0.4,9.3
56.933831214904785,1.7,0.6,9.6,0.7,9.6
57.00921177864075,1.69,0.7,9.7,0.5,9.7
57.08365750312805,1.7,0.7,9.7,0.5,9.7
57.15931272506714,1.69,0.6,9.7,0.8,9.8
57.23407578468323,1.68,0.6,9.6,0.6,9.6
57.30972695350647,1.7,0.6,9.6,0.7,9.6
57.38360524177551,1.7,0.6,9.6,0.6,9.6
57.45817494392395,1.7,0.6,9.6,0.7,9.6
57.5339035987854,1.69,0.6,9.6,0.7,9.6
57.60887312889099,1.71,0.6,9.6,0.7,9.6
57.68397545814514,1.68,0.6,9.6,0.7,9.6
57.758697271347046,1.71,0.6,9.6,0.7,9.6
57.834476470947266,1.71,0.6,9.6,0.7,9.6
57.90900015830994,1.71,0.5,9.6,0.7,9.6
57.98387050628662,1.71,0.6,9.2,0.4,9.2
58.059298276901245,1.69,0.6,9.5,0.5,9.5
58.13455677032471,1.7,0.6,9.6,0.5,9.6
58.20961546897888,1.71,0.6,9.7,0.5,9.7
58.28389310836792,1.69,0.6,9.7,0.6,9.7
58.35911536216736,1.71,0.6,9.6,0.6,9.6
58.43447542190552,1.71,0.6,9.6,0.6,9.6
58.509127140045166,1.69,0.6,9.6,0.5,9.6
58.58396339416504,1.71,0.6,9.6,0.7,9.6
58.659008741378784,1.7,0.6,9.6,0.7,9.6
58.73453712463379,1.7,0.6,9.6,0.6,9.6
58.80890440940857,1.71,0.6,9.6,0.7,9.6
58.88418412208557,1.69,0.6,9.6,0.7,9.6
58.958603620529175,1.72,0.6,10.0,0.8,10.0
59.03402876853943,1.7,0.5,9.1,0.8,9.1
59.109182596206665,1.68,0.6,9.5,0.7,9.5
59.18411612510681,1.69,0.6,9.7,0.8,9.8
59.25855779647827,1.69,0.6,9.7,0.8,9.8
59.33397603034973,1.68,0.6,9.7,0.7,9.7
59.40925121307373,1.7,0.6,9.7,0.8,9.8
59.48457479476929,1.67,0.6,9.7,0.8,9.8
59.55939984321594,1.67,0.6,9.6,0.8,9.7
59.63348340988159,1.68,0.5,9.6,0.8,9.6
59.70878028869629,1.7,0.6,9.6,0.7,9.6
59.7843234539032,1.69,0.6,9.6,0.6,9.6
59.85895323753357,1.67,0.6,9.6,0.7,9.6
59.93416094779968,1.68,0.6,9.6,0.7,9.6
60.009000301361084,1.69,0.6,9.6,0.7,9.6
60.084349155426025,1.68,0.6,10.0,0.7,10.0
60.15889072418213,1.71,0.5,9.2,0.8,9.2
60.23366665840149,1.68,0.6,9.6,0.7,9.6
60.328009366989136,1.71,0.6,9.8,0.8,9.9
60.4031298160553,1.69,0.6,9.5,0.8,9.6
60.47792649269104,1.73,0.6,9.6,0.8,9.7
60.553112506866455,1.7,0.6,9.6,0.8,9.7
60.62777876853943,1.71,0.6,9.7,0.8,9.8
60.702903270721436,1.72,0.6,9.6,0.7,9.6
60.77734637260437,1.73,0.6,9.6,0.5,9.6
60.852707386016846,1.72,0.6,9.6,0.7,9.6
60.92743539810181,1.71,0.6,9.6,0.6,9.6
61.002788066864014,1.72,0.6,9.6,0.6,9.6
61.077716588974,1.71,0.6,9.6,0.6,9.6
61.153040170669556,1.71,0.7,9.5,0.3,9.5
61.22806763648987,1.69,0.6,9.9,0.8,10.0
61.30307865142822,1.71,0.5,9.6,0.8,9.6
61.37795376777649,1.73,0.6,9.6,0.8,9.7
61.452993392944336,1.73,0.6,9.6,0.8,9.7
61.52742147445679,1.72,0.6,9.5,0.6,9.5
61.60244154930115,1.69,0.6,9.6,0.5,9.6
61.67816233634949,1.71,0.6,9.6,0.8,9.7
61.75328230857849,1.72,0.6,9.6,0.5,9.6
61.82807970046997,1.72,0.6,9.7,0.8,9.8
61.903191328048706,1.71,0.6,9.6,0.7,9.6
61.9774706363678,1.72,0.6,9.6,0.7,9.6
62.052690744400024,1.73,0.6,9.6,0.7,9.6
62.12792611122131,1.71,0.6,9.6,0.7,9.6
62.20285248756409,1.71,0.6,9.6,0.7,9.6
62.27808713912964,1.72,0.6,9.3,0.7,9.3
62.35276532173157,1.73,0.6,9.9,0.8,10.0
62.428147315979004,1.69,0.6,9.7,0.3,9.7
62.50309729576111,1.71,0.6,9.6,0.6,9.6
62.577719926834106,1.71,0.6,9.5,0.6,9.5
62.65317153930664,1.7,0.6,9.5,0.7,9.5
62.7279896736145,1.7,0.6,9.6,0.6,9.6
62.80289125442505,1.69,0.6,9.6,0.6,9.6
62.87851905822754,1.7,0.6,9.6,0.6,9.6
62.952555656433105,1.72,0.6,9.6,0.6,9.6
63.02841854095459,1.7,0.6,9.6,0.8,9.7
63.1037232875824,1.71,0.6,9.6,0.7,9.6
63.17801070213318,1.69,0.6,9.6,0.7,9.6
63.25345778465271,1.71,0.6,9.6,0.7,9.6
63.328213691711426,1.71,0.7,9.4,0.3,9.4
63.40345907211304,1.69,0.5,9.9,0.8,9.9
63.478161573410034,1.69,0.5,9.5,0.8,9.5
63.55349946022034,1.7,0.6,9.5,0.8,9.6
63.62839961051941,1.69,0.6,9.6,0.8,9.7
63.702794551849365,1.71,0.6,9.7,0.8,9.8
63.77811813354492,1.71,0.6,9.7,0.8,9.8
63.85308575630188,1.7,0.6,9.7,0.8,9.8
63.92844247817993,1.74,0.6,9.7,0.8,9.8
64.00327968597412,1.73,0.6,9.6,0.8,9.7
64.078378200531,1.71,0.6,9.6,0.6,9.6
64.15338683128357,1.7,0.6,9.6,0.6,9.6
64.22876620292664,1.7,0.6,9.6,0.7,9.6
64.30310916900635,1.71,0.6,9.6,0.6,9.6
64.37796139717102,1.71,0.6,9.6,0.6,9.6
64.45288038253784,1.73,0.6,9.2,0.6,9.2
64.52817749977112,1.7,0.6,9.4,0.7,9.4
64.60338568687439,1.72,0.7,9.6,0.5,9.6
64.67805624008179,1.71,0.6,9.7,0.6,9.7
64.75350999832153,1.7,0.6,9.7,0.8,9.8
64.82806301116943,1.69,0.6,9.6,0.7,9.6
64.90341639518738,1.71,0.6,9.6,0.6,9.6
64.97831797599792,1.71,0.6,9.5,0.5,9.5
65.0536117553711,1.73,0.6,9.6,0.8,9.7
65.12833404541016,1.7,0.6,9.6,0.6,9.6
65.2035984992981,1.71,0.6,9.6,0.7,9.6
65.27792882919312,1.71,0.6,9.6,0.6,9.6
65.35356020927429,1.68,0.6,9.6,0.6,9.6
65.42808222770691,1.71,0.6,9.6,0.7,9.6
65.50328159332275,1.71,0.6,9.1,0.4,9.1
65.57781434059143,1.71,0.6,9.6,0.8,9.7
65.65279579162598,1.7,0.6,9.8,0.8,9.9
65.72902750968933,1.71,0.7,9.7,0.4,9.7
65.80317091941833,1.7,0.5,9.6,0.8,9.6
65.87839794158936,1.71,0.6,9.6,0.8,9.7
65.95262789726257,1.71,0.6,9.6,0.8,9.7
66.0276870727539,1.71,0.6,9.6,0.7,9.6
66.10339999198914,1.7,0.6,9.6,0.6,9.6
66.1785180568695,1.72,0.6,9.6,0.8,9.7
66.25301480293274,1.71,0.6,9.6,0.6,9.6
66.32874727249146,1.7,0.6,9.6,0.7,9.6
66.40335416793823,1.7,0.6,9.6,0.7,9.6
66.4776930809021,1.72,0.6,9.6,0.7,9.6
66.55325770378113,1.71,0.7,9.8,0.5,9.8
66.62796401977539,1.75,0.6,9.7,0.8,9.8
66.7027428150177,1.73,0.5,9.5,0.8,9.5
66.77791476249695,1.72,0.6,9.5,0.8,9.6
66.85394883155823,1.74,0.5,9.6,0.8,9.6
66.92786478996277,1.72,0.6,9.6,0.8,9.7
67.00273489952087,1.72,0.6,9.6,0.8,9.7
67.07769989967346,1.72,0.6,9.7,0.8,9.8
67.15368223190308,1.7,0.6,9.6,0.5,9.6
67.22873449325562,1.71,0.6,9.6,0.6,9.6
67.30326986312866,1.7,0.6,9.6,0.7,9.6
67.37848782539368,1.7,0.6,9.6,0.7,9.6
67.45354914665222,1.72,0.6,9.6,0.6,9.6
67.52804446220398,1.71,0.6,9.6,0.6,9.6
67.60320472717285,1.72,0.6,10.3,0.5,10.3
67.67853236198425,1.72,0.5,9.5,0.8,9.5
67.75344252586365,1.72,0.6,9.4,0.8,9.5
67.82871079444885,1.71,0.6,9.6,0.8,9.7
67.90334916114807,1.71,0.6,9.7,0.8,9.8
67.97885084152222,1.69,0.6,9.7,0.8,9.8
68.05374717712402,1.68,0.6,9.6,0.5,9.6
68.12828707695007,1.7,0.6,9.7,0.8,9.8
68.2035186290741,1.72,0.6,9.6,0.6,9.6
68.27784895896912,1.7,0.6,9.6,0.7,9.6
68.353280544281,1.7,0.6,9.6,0.8,9.7
68.42851305007935,1.71,0.6,9.6,0.7,9.6
68.50400924682617,1.71,0.6,9.6,0.6,9.6
68.57838749885559,1.7,0.6,9.6,0.6,9.6
68.65321779251099,1.71,0.6,10.0,0.7,10.0
68.72818112373352,1.7,0.5,9.3,0.9,9.4
68.80322241783142,1.68,0.6,9.5,0.8,9.6
68.87851071357727,1.71,0.6,9.6,0.8,9.7
68.95319294929504,1.67,0.6,9.7,0.7,9.7
69.02864789962769,1.69,0.6,9.7,0.6,9.7
69.10324144363403,1.7,0.6,9.7,0.7,9.7
69.17819666862488,1.67,0.6,9.6,0.7,9.6
69.25357055664062,1.69,0.6,9.6,0.7,9.6
69.32849955558777,1.73,0.6,9.6,0.6,9.6
69.40262794494629,1.71,0.6,9.6,0.6,9.6
69.47765231132507,1.7,0.6,9.6,0.6,9.6
69.55297112464905,1.72,0.6,9.6,0.6,9.6
69.62741303443909,1.7,0.6,9.6,0.6,9.6
69.70327496528625,1.71,0.6,9.6,0.6,9.6
69.77776718139648,1.7,0.6,9.5,0.8,9.6
69.85379314422607,1.69,0.6,9.3,0.5,9.3
69.92865085601807,1.72,0.6,9.6,0.5,9.6
70.00326442718506,1.7,0.6,9.7,0.5,9.7
70.07774043083191,1.71,0.6,9.7,0.6,9.7
70.153165102005,1.7,0.6,9.7,0.7,9.7
70.22824597358704,1.68,0.6,9.6,0.7,9.6
70.30308794975281,1.71,0.6,9.6,0.5,9.6
70.37821054458618,1.71,0.6,9.5,0.5,9.5
70.45345950126648,1.72,0.5,9.6,0.7,9.6
70.52804970741272,1.69,0.6,9.6,0.6,9.6
70.60324311256409,1.69,0.6,9.6,0.7,9.6
70.67796802520752,1.7,0.6,9.6,0.7,9.6
70.75407242774963,1.7,0.6,9.6,0.7,9.6
70.82847428321838,1.72,0.6,9.4,0.8,9.5
70.90321850776672,1.7,0.6,9.7,0.9,9.8
70.97860264778137,1.69,0.6,9.9,0.6,9.9
71.05333185195923,1.7,0.6,9.6,0.6,9.6
71.12859153747559,1.7,0.6,9.5,0.7,9.5
71.20314383506775,1.74,0.6,9.5,0.6,9.5
71.27793097496033,1.73,0.6,9.5,0.5,9.5
71.35362792015076,1.71,0.6,9.5,0.4,9.5
71.42887282371521,1.71,0.6,9.6,0.5,9.6
71.503347158432,1.72,0.6,9.6,0.6,9.6
71.57801175117493,1.7,0.6,9.7,0.8,9.8
71.65307855606079,1.72,0.6,9.6,0.6,9.6
71.72844576835632,1.71,0.6,9.6,0.7,9.6
71.80296301841736,1.72,0.6,9.6,0.6,9.6
71.87837362289429,1.72,0.6,9.6,0.6,9.6
71.95288515090942,1.74,0.6,9.1,0.5,9.1
72.02814221382141,1.69,0.6,9.6,0.6,9.6
72.10311532020569,1.71,0.6,9.8,0.8,9.9
72.17828893661499,1.71,0.6,9.7,0.6,9.7
72.25383639335632,1.73,0.6,9.6,0.6,9.6
72.3283383846283,1.73,0.6,9.6,0.8,9.7
72.40312957763672,1.73,0.6,9.6,0.7,9.6
72.47834300994873,1.72,0.6,9.5,0.5,9.5
72.55336165428162,1.71,0.6,9.6,0.6,9.6
72.62779998779297,1.72,0.6,9.6,0.8,9.7
72.70367193222046,1.7,0.6,9.6,0.7,9.6
72.77850723266602,1.7,0.6,9.6,0.7,9.6
72.85367202758789,1.73,0.6,9.6,0.7,9.6
72.92862915992737,1.72,0.6,9.6,0.7,9.6
73.00340723991394,1.72,0.7,9.2,0.4,9.2
73.07846474647522,1.71,0.6,9.9,0.8,10.0
73.15298461914062,1.71,0.5,9.7,0.8,9.7
73.22830963134766,1.7,0.6,9.6,0.7,9.6
73.3034131526947,1.71,0.6,9.6,0.8,9.7
73.37770938873291,1.71,0.6,9.6,0.8,9.7
73.45365929603577,1.68,0.5,9.6,0.8,9.6
73.52833199501038,1.7,0.5,9.6,0.8,9.6
73.62244153022766,1.71,0.6,9.6,0.8,9.7
73.69754815101624,1.71,0.6,9.6,0.6,9.6
73.77175617218018,1.71,0.6,9.6,0.8,9.7
73.84736657142639,1.7,0.6,9.6,0.7,9.6
73.92170023918152,1.73,0.6,9.6,0.6,9.6
73.9966287612915,1.71,0.6,10.0,0.7,10.0
74.07155871391296,1.68,0.5,9.3,0.9,9.4
74.14697027206421,1.68,0.6,9.4,0.8,9.5
74.22153377532959,1.71,0.6,9.6,0.8,9.7
74.29724502563477,1.72,0.6,9.7,0.8,9.8
74.37229061126709,1.69,0.6,9.7,0.9,9.8
74.44665765762329,1.69,0.6,9.7,0.8,9.8
74.52155590057373,1.68,0.6,9.7,0.8,9.8
74.59716057777405,1.71,0.6,9.6,0.8,9.7
74.67241954803467,1.71,0.6,9.6,0.8,9.7
74.74719858169556,1.71,0.6,9.5,0.5,9.5
74.82262015342712,1.71,0.6,9.6,0.8,9.7
74.89728021621704,1.71,0.6,9.6,0.5,9.6
74.97189474105835,1.71,0.6,9.6,0.6,9.6
75.04710555076599,1.69,0.6,9.6,0.7,9.6
75.12220096588135,1.72,0.6,9.0,0.5,9.0
75.19741320610046,1.71,0.6,9.5,0.7,9.5
75.27224040031433,1.74,0.6,9.8,0.6,9.8
75.34667897224426,1.72,0.6,9.7,0.6,9.7
75.42257976531982,1.73,0.6,9.7,0.7,9.7
75.49756574630737,1.72,0.6,9.7,0.7,9.7
75.57226634025574,1.71,0.6,9.6,0.7,9.6
75.64678001403809,1.73,0.6,9.6,0.8,9.7
75.72224307060242,1.74,0.6,9.6,0.7,9.6
75.79708576202393,1.72,0.6,9.6,0.5,9.6
75.87289214134216,1.72,0.6,9.6,0.8,9.7
75.94739627838135,1.7,0.6,9.6,0.6,9.6
76.02254605293274,1.71,0.6,9.6,0.7,9.6
76.09745621681213,1.7,0.6,9.6,0.7,9.6
76.17265844345093,1.73,0.6,9.4,0.8,9.5
76.24715185165405,1.71,0.5,9.7,0.8,9.7
76.32215785980225,1.7,0.6,9.7,0.5,9.7
76.39735794067383,1.71,0.6,9.7,0.7,9.7
76.47133159637451,1.72,0.6,9.6,0.8,9.7
76.54725193977356,1.72,0.6,9.6,0.8,9.7
76.62226295471191,1.72,0.6,9.5,0.7,9.5
76.69730854034424,1.71,0.6,9.6,0.6,9.6
76.77225422859192,1.71,0.6,9.6,0.8,9.7
76.84745287895203,1.7,0.6,9.6,0.7,9.6
76.92201566696167,1.7,0.6,9.6,0.7,9.6
76.99731874465942,1.7,0.6,9.6,0.6,9.6
77.07247996330261,1.71,0.6,9.6,0.7,9.6
77.14725184440613,1.72,0.6,9.6,0.7,9.6
77.22243213653564,1.71,0.6,9.6,0.7,9.6
77.2974579334259,1.72,0.7,9.3,0.3,9.3
77.37225127220154,1.68,0.6,10.0,0.8,10.0
77.44758033752441,1.69,0.5,9.6,0.8,9.6
77.5221016407013,1.71,0.6,9.5,0.8,9.6
77.59741806983948,1.74,0.5,9.5,0.8,9.5
77.67238640785217,1.74,0.5,9.6,0.8,9.6
77.74720907211304,1.71,0.6,9.6,0.8,9.7
77.82181453704834,1.71,0.6,9.6,0.8,9.7
77.89725089073181,1.71,0.6,9.6,0.8,9.7
77.97202444076538,1.72,0.6,9.6,0.5,9.6
78.04784631729126,1.69,0.6,9.6,0.8,9.7
78.12207102775574,1.7,0.6,9.6,0.6,9.6
78.19707179069519,1.68,0.6,9.6,0.7,9.6
78.2724084854126,1.71,0.6,9.6,0.7,9.6
78.34785175323486,1.7,0.6,9.8,0.7,9.8
78.42249035835266,1.73,0.5,9.3,0.8,9.3
78.49757885932922,1.74,0.6,9.5,0.8,9.6
78.57231187820435,1.74,0.5,9.6,0.8,9.6
78.64707660675049,1.73,0.6,9.7,0.8,9.8
78.7224018573761,1.72,0.6,9.7,0.8,9.8
78.79677557945251,1.71,0.6,9.7,0.8,9.8
78.8723349571228,1.73,0.6,9.6,0.6,9.6
78.94702768325806,1.72,0.6,9.6,0.6,9.6
79.0221016407013,1.72,0.6,9.6,0.7,9.6
79.09762811660767,1.74,0.6,9.6,0.8,9.7
79.17184090614319,1.7,0.6,9.6,0.6,9.6
79.24744510650635,1.71,0.6,9.6,0.6,9.6
79.32210803031921,1.73,0.6,9.6,0.6,9.6
79.39726400375366,1.72,0.6,9.6,0.6,9.6
79.47253346443176,1.73,0.6,9.3,0.8,9.4
79.54640507698059,1.73,0.6,9.3,0.4,9.3
79.62185525894165,1.71,0.6,9.6,0.7,9.6
79.6977596282959,1.73,0.7,9.6,0.5,9.6
79.7725281715393,1.71,0.6,9.7,0.6,9.7
79.84759330749512,1.7,0.6,9.7,0.8,9.8
79.92243909835815,1.72,0.6,9.6,0.6,9.6
79.99714612960815,1.72,0.6,9.6,0.7,9.6
80.07188487052917,1.71,0.6,9.6,0.7,9.6
80.147620677948,1.69,0.6,9.6,0.6,9.6
80.22187972068787,1.69,0.6,9.6,0.6,9.6
80.29773926734924,1.71,0.6,9.6,0.7,9.6
80.37277746200562,1.69,0.6,9.6,0.7,9.6
80.44684481620789,1.71,0.6,9.6,0.7,9.6
80.52281904220581,1.69,0.5,9.7,0.7,9.7
80.59672451019287,1.7,0.5,9.3,0.8,9.3
80.6726861000061,1.71,0.6,9.7,0.8,9.8
80.74728608131409,1.7,0.6,9.8,0.8,9.9
80.82178378105164,1.69,0.6,9.7,0.8,9.8
80.89761686325073,1.69,0.6,9.7,0.8,9.8
80.97172617912292,1.69,0.6,9.6,0.8,9.7
81.04745960235596,1.69,0.6,9.6,0.8,9.7
81.12210440635681,1.7,0.6,9.6,0.8,9.7
81.19760465621948,1.68,0.6,9.5,0.5,9.5
81.2726640701294,1.7,0.6,9.6,0.8,9.7
81.34739375114441,1.7,0.6,9.6,0.6,9.6
81.45892906188965,1.71,0.6,9.6,0.7,9.6
81.53461050987244,1.74,0.6,9.6,0.7,9.6
81.60922646522522,1.71,0.6,9.6,0.7,9.6
81.68512988090515,1.7,0.6,9.8,0.8,9.9
81.76026821136475,1.7,0.7,9.4,0.3,9.4
81.83483290672302,1.71,0.6,9.4,0.4,9.4
81.91026949882507,1.7,0.7,9.5,0.4,9.5
81.98503994941711,1.69,0.6,9.5,0.4,9.5
82.06013560295105,1.71,0.7,9.6,0.4,9.6
82.13569259643555,1.71,0.6,9.6,0.4,9.6
82.20938992500305,1.7,0.6,9.6,0.6,9.6
82.28503155708313,1.71,0.6,9.7,0.8,9.8
82.35998225212097,1.71,0.6,9.6,0.5,9.6
82.43486404418945,1.71,0.6,9.6,0.8,9.7
82.5096869468689,1.73,0.6,9.6,0.6,9.6
82.58446383476257,1.73,0.6,9.6,0.6,9.6
82.6598014831543,1.69,0.6,9.6,0.6,9.6
82.73516321182251,1.72,0.7,10.0,0.5,10.0
82.81053185462952,1.71,0.5,9.6,0.8,9.6
82.88516092300415,1.7,0.5,9.5,0.8,9.5
82.95971393585205,1.71,0.6,9.5,0.8,9.6
83.03507685661316,1.69,0.6,9.6,0.8,9.7
83.10970664024353,1.69,0.6,9.6,0.8,9.7
83.18488597869873,1.69,0.6,9.6,0.8,9.7
83.25932621955872,1.71,0.6,9.7,0.8,9.8
83.33539199829102,1.7,0.6,9.6,0.8,9.7
83.40984344482422,1.72,0.6,9.6,0.6,9.6
83.48446369171143,1.67,0.6,9.6,0.7,9.6
83.56058073043823,1.7,0.6,9.6,0.6,9.6
83.63503336906433,1.71,0.6,9.6,0.7,9.6
83.70957136154175,1.69,0.6,9.6,0.7,9.6
83.78508377075195,1.7,0.6,9.6,0.7,9.6
83.85978150367737,1.71,0.6,9.5,0.8,9.6
83.93485021591187,1.7,0.6,9.3,0.4,9.3
84.01022982597351,1.72,0.6,9.5,0.5,9.5
84.08536386489868,1.68,0.7,9.6,0.4,9.6
84.16019749641418,1.71,0.6,9.6,0.5,9.6
84.2350537776947,1.69,0.6,9.7,0.8,9.8
84.30991435050964,1.69,0.6,9.6,0.6,9.6
84.3850769996643,1.73,0.6,9.7,0.7,9.7
84.45960593223572,1.69,0.6,9.6,0.7,9.6
84.53530550003052,1.69,0.6,9.6,0.6,9.6
84.6108078956604,1.71,0.6,9.6,0.6,9.6
84.68524646759033,1.7,0.6,9.6,0.7,9.6
84.75986576080322,1.7,0.6,9.6,0.7,9.6
84.83493280410767,1.7,0.6,9.6,0.7,9.6
84.9105896949768,1.71,0.6,9.3,0.7,9.3
84.98507046699524,1.7,0.6,9.9,0.9,10.0
85.05969572067261,1.72,0.6,9.8,0.6,9.8
85.13523149490356,1.71,0.6,9.6,0.4,9.6
85.2099449634552,1.71,0.6,9.6,0.6,9.6
85.28449010848999,1.71,0.6,9.6,0.8,9.7
85.35981488227844,1.7,0.6,9.6,0.8,9.7
85.43497848510742,1.73,0.6,9.5,0.6,9.5
85.50952291488647,1.73,0.6,9.6,0.8,9.7
85.58542060852051,1.72,0.6,9.6,0.6,9.6
85.66028714179993,1.73,0.6,9.6,0.6,9.6
85.73483061790466,1.75,0.6,9.6,0.8,9.7
85.81007051467896,1.72,0.6,9.6,0.7,9.6
85.88468265533447,1.71,0.6,9.6,0.7,9.6
85.95952820777893,1.68,0.6,9.6,0.7,9.6
86.03436851501465,1.69,0.6,9.6,0.8,9.7
86.10997486114502,1.69,0.6,9.3,0.4,9.3
86.18494915962219,1.7,0.6,9.5,0.4,9.5
86.25992798805237,1.72,0.6,9.6,0.4,9.6
86.33559036254883,1.73,0.7,9.6,0.4,9.6
86.4098310470581,1.69,0.7,9.6,0.4,9.6
86.48448061943054,1.7,0.6,9.6,0.6,9.6
86.56047320365906,1.73,0.6,9.7,0.8,9.8
86.63466715812683,1.71,0.6,9.6,0.5,9.6
86.70976209640503,1.71,0.6,9.6,0.8,9.7
86.78455209732056,1.68,0.6,9.6,0.6,9.6
86.86114883422852,1.67,0.6,9.6,0.6,9.6
86.93544960021973,1.71,0.6,9.6,0.6,9.6
87.00965189933777,1.71,0.6,9.6,0.7,9.6
87.08498907089233,1.72,0.6,10.3,0.5,10.3
87.15983009338379,1.72,0.5,9.6,0.8,9.6
87.23452663421631,1.71,0.6,9.4,0.8,9.5
87.31017899513245,1.68,0.5,9.5,0.8,9.5
87.38586974143982,1.69,0.6,9.6,0.8,9.7
87.46040391921997,1.72,0.6,9.7,0.8,9.8
87.53476071357727,1.7,0.6,9.7,0.8,9.8
87.61066842079163,1.71,0.6,9.7,0.8,9.8
87.685142993927,1.7,0.6,9.6,0.7,9.6
87.76001572608948,1.69,0.7,9.6,0.5,9.6
87.83472561836243,1.7,0.6,9.6,0.8,9.7
87.91050052642822,1.69,0.5,9.6,0.7,9.6
87.98588371276855,1.69,0.6,9.6,0.6,9.6
88.06012558937073,1.72,0.6,9.6,0.6,9.6
88.13468408584595,1.69,0.6,9.4,0.7,9.4
88.20997333526611,1.71,0.6,9.9,0.8,10.0
88.28522753715515,1.71,0.6,9.7,0.4,9.7
88.36047625541687,1.71,0.6,9.5,0.6,9.5
88.43499255180359,1.7,0.6,9.5,0.7,9.5
88.51016116142273,1.73,0.6,9.5,0.6,9.5
88.58490896224976,1.72,0.6,9.6,0.7,9.6
88.6603946685791,1.73,0.6,9.6,0.8,9.7
88.7350423336029,1.7,0.6,9.6,0.8,9.7
88.81052255630493,1.72,0.6,9.6,0.5,9.6
88.8848204612732,1.71,0.6,9.6,0.8,9.7
88.96038770675659,1.68,0.6,9.6,0.6,9.6
89.03428363800049,1.71,0.6,9.6,0.6,9.6
89.11022877693176,1.72,0.6,9.6,0.7,9.6
89.1856300830841,1.71,0.6,9.3,0.7,9.3
89.25974297523499,1.71,0.5,9.9,0.9,10.0
89.33455419540405,1.72,0.6,9.8,0.5,9.8
89.40964317321777,1.72,0.6,9.6,0.6,9.6
89.48522877693176,1.73,0.6,9.5,0.6,9.5
89.56040787696838,1.71,0.6,9.5,0.6,9.5
89.63498091697693,1.72,0.6,9.5,0.5,9.5
89.71068334579468,1.74,0.6,9.6,0.5,9.6
89.78524780273438,1.72,0.6,9.6,0.8,9.7
89.85991215705872,1.73,0.6,9.7,0.8,9.8
89.93535375595093,1.71,0.6,9.6,0.5,9.6
90.01023483276367,1.72,0.6,9.7,0.8,9.8
90.08476114273071,1.72,0.6,9.6,0.6,9.6
90.15993738174438,1.71,0.6,9.6,0.6,9.6
90.23492908477783,1.72,0.6,9.6,0.7,9.6
90.31045413017273,1.71,0.6,9.6,0.8,9.7
90.38525438308716,1.7,0.6,9.3,0.4,9.3
90.46049284934998,1.7,0.6,9.5,0.5,9.5
90.53590965270996,1.72,0.7,9.5,0.4,9.5
90.60980868339539,1.71,0.7,9.6,0.4,9.6
90.68507122993469,1.72,0.7,9.6,0.4,9.6
90.76039242744446,1.71,0.7,9.6,0.5,9.6
90.83490872383118,1.7,0.6,9.6,0.8,9.7
90.91011905670166,1.71,0.6,9.6,0.7,9.6
90.98609590530396,1.7,0.6,9.6,0.5,9.6
91.06021046638489,1.71,0.6,9.6,0.7,9.6
91.13540744781494,1.7,0.6,9.6,0.7,9.6
91.20970320701599,1.71,0.6,9.6,0.7,9.6
91.28548765182495,1.71,0.6,9.6,0.7,9.6
91.36013746261597,1.73,0.7,9.5,0.3,9.5
91.43525862693787,1.7,0.6,9.9,0.8,10.0
91.50963163375854,1.7,0.6,9.6,0.8,9.7
91.58555293083191,1.7,0.6,9.5,0.8,9.6
91.66027021408081,1.7,0.6,9.5,0.6,9.5
91.7351393699646,1.68,0.6,9.5,0.6,9.5
91.81027913093567,1.69,0.6,9.6,0.8,9.7
91.88468980789185,1.7,0.6,9.6,0.7,9.6
91.96068859100342,1.67,0.6,9.6,0.7,9.6
92.034738779068,1.69,0.6,9.6,0.6,9.6
92.11037397384644,1.69,0.6,9.6,0.6,9.6
92.18498849868774,1.69,0.6,9.6,0.7,9.6
92.26055312156677,1.69,0.6,9.6,0.7,9.6
92.33563351631165,1.7,0.6,9.6,0.7,9.6
92.4105875492096,1.73,0.6,9.6,0.7,9.6
92.48520398139954,1.72,0.6,9.5,0.7,9.5
92.56011295318604,1.69,0.5,9.6,0.8,9.6
92.6351523399353,1.71,0.6,9.8,0.8,9.9
92.71004033088684,1.73,0.6,9.7,0.6,9.7
92.7852463722229,1.72,0.6,9.7,0.8,9.8
92.86007022857666,1.74,0.6,9.7,0.8,9.8
92.93553042411804,1.7,0.6,9.6,0.6,9.6
93.00984215736389,1.7,0.6,9.6,0.8,9.7
93.08521723747253,1.71,0.6,9.5,0.5,9.5
93.16038155555725,1.71,0.6,9.6,0.6,9.6
93.23509693145752,1.69,0.6,9.6,0.6,9.6
93.31002736091614,1.7,0.6,9.6,0.6,9.6
93.38537168502808,1.71,0.6,9.6,0.6,9.6
93.45993852615356,1.69,0.6,9.6,0.7,9.6
93.53506278991699,1.69,0.6,9.6,0.7,9.6
93.61057233810425,1.68,0.7,9.3,0.4,9.3
93.68530416488647,1.71,0.6,9.8,0.8,9.9
93.76036953926086,1.7,0.6,9.8,0.8,9.9
93.83523750305176,1.68,0.6,9.7,0.6,9.7
93.91081690788269,1.67,0.6,9.6,0.6,9.6
93.98523235321045,1.72,0.6,9.6,0.7,9.6
94.06046748161316,1.73,0.6,9.6,0.7,9.6
94.13570737838745,1.7,0.6,9.6,0.6,9.6
94.21036124229431,1.68,0.6,9.6,0.7,9.6
94.30395221710205,1.69,0.6,9.6,0.6,9.6
94.37913250923157,1.7,0.6,9.6,0.7,9.6
94.4543571472168,1.69,0.6,9.6,0.6,9.6
94.5294623374939,1.67,0.6,9.6,0.6,9.6
94.60438227653503,1.71,0.6,9.6,0.6,9.6
94.67936611175537,1.7,0.6,9.6,0.7,9.6
94.75414896011353,1.71,0.6,9.6,0.7,9.6
94.82867217063904,1.7,0.6,9.6,0.7,9.6
94.90391421318054,1.69,0.6,9.6,0.7,9.6
94.97876787185669,1.69,0.6,9.6,0.7,9.6
95.05442214012146,1.7,0.6,9.6,0.7,9.6
95.12901759147644,1.7,0.6,9.6,0.7,9.6
95.20344495773315,1.7,0.6,9.6,0.7,9.6
95.2789237499237,1.71,0.6,9.6,0.7,9.6
95.35409784317017,1.7,0.6,9.6,0.7,9.6
95.42803049087524,1.7,0.6,9.6,0.7,9.6
95.50388503074646,1.69,0.6,9.6,0.7,9.6
95.57856154441833,1.71,0.6,9.6,0.7,9.6
95.65404462814331,1.69,0.6,9.6,0.7,9.6
95.72953939437866,1.72,0.6,9.6,0.7,9.6
95.80424499511719,1.71,0.6,9.6,0.6,9.6
95.8790991306305,1.7,0.6,9.6,0.7,9.6
95.95389294624329,1.69,0.6,9.6,0.7,9.6
96.02878737449646,1.68,0.6,9.6,0.7,9.6
96.10391736030579,1.68,0.6,9.6,0.7,9.6
96.17869973182678,1.7,0.6,9.6,0.7,9.6
96.25323414802551,1.71,0.6,9.6,0.7,9.6
96.32873034477234,1.7,0.6,9.6,0.7,9.6
96.40444087982178,1.68,0.6,9.6,0.7,9.6
96.4794135093689,1.69,0.6,9.6,0.7,9.6
96.55404686927795,1.73,0.6,9.6,0.7,9.6
96.62904238700867,1.7,0.6,9.6,0.7,9.6
96.70372605323792,1.72,0.6,9.6,0.6,9.6
96.77853083610535,1.7,0.6,9.6,0.7,9.6
96.85400414466858,1.71,0.6,9.6,0.7,9.6
96.92919707298279,1.71,0.6,9.6,0.7,9.6
97.003488779068,1.69,0.6,9.6,0.7,9.6
97.07829332351685,1.7,0.6,9.6,0.7,9.6
97.15344500541687,1.68,0.6,9.6,0.7,9.6
97.2288281917572,1.71,0.6,9.6,0.7,9.6
97.30365085601807,1.7,0.6,9.7,0.7,9.7
97.37945795059204,1.72,0.6,9.6,0.8,9.7
97.45416784286499,1.71,0.6,9.6,0.8,9.7
97.52935338020325,1.72,0.6,9.5,0.7,9.5
97.60387563705444,1.71,0.6,9.7,0.8,9.8
97.67905068397522,1.72,0.6,9.6,0.8,9.7
97.75406646728516,1.71,0.6,9.5,0.5,9.5
97.82899260520935,1.7,0.6,9.7,0.8,9.8
97.90431809425354,1.69,0.6,9.6,0.8,9.7
97.978679895401,1.69,0.6,9.6,0.8,9.7
98.05369687080383,1.7,0.6,9.6,0.5,9.6
98.12898373603821,1.71,0.6,9.6,0.8,9.7
98.20465040206909,1.69,0.6,9.6,0.6,9.6
98.29783415794373,1.7,0.6,9.3,0.4,9.3
98.37316012382507,1.72,0.6,9.5,0.4,9.5
98.44828414916992,1.68,0.6,9.6,0.7,9.6
98.5229139328003,1.71,0.6,9.6,0.8,9.7
98.59809041023254,1.71,0.6,9.6,0.8,9.7
98.67253589630127,1.7,0.6,9.6,0.5,9.6
98.74807643890381,1.71,0.6,9.6,0.6,9.6
98.82318162918091,1.69,0.6,9.6,0.7,9.6
98.89740705490112,1.7,0.6,9.6,0.7,9.6
98.97302865982056,1.7,0.7,9.9,0.4,9.9
99.04785680770874,1.7,0.6,9.7,0.8,9.8
99.12261962890625,1.68,0.5,9.7,0.8,9.7
99.19786930084229,1.69,0.5,9.6,0.8,9.6
99.27269434928894,1.69,0.6,9.6,0.8,9.7
99.34815454483032,1.7,0.6,9.6,0.8,9.7
99.42352724075317,1.69,0.6,9.6,0.5,9.6
99.49827671051025,1.69,0.6,9.6,0.7,9.6
99.57311081886292,1.69,0.6,9.6,0.5,9.6
99.64764761924744,1.71,0.6,9.4,0.4,9.4
99.72286200523376,1.72,0.6,9.6,0.7,9.6
99.79784274101257,1.71,0.6,9.6,0.8,9.7
99.87305951118469,1.71,0.6,9.6,0.8,9.7
99.94746279716492,1.7,0.6,9.6,0.6,9.6
100.02261567115784,1.69,0.6,9.5,0.5,9.5
100.11652445793152,1.7,0.6,9.6,0.8,9.7
100.19100856781006,1.72,0.6,9.6,0.7,9.6
100.26625370979309,1.69,0.6,9.6,0.6,9.6
100.34181070327759,1.69,0.6,9.6,0.6,9.6
100.41601157188416,1.69,0.6,9.7,0.8,9.8
100.4917299747467,1.68,0.7,9.5,0.3,9.5
100.56685495376587,1.72,0.6,9.6,0.6,9.6
100.64205002784729,1.71,0.6,9.6,0.5,9.6
100.71726679801941,1.68,0.6,9.6,0.5,9.6
100.79085564613342,1.7,0.6,9.6,0.6,9.6
100.86665511131287,1.71,0.6,9.6,0.7,9.6
100.94136810302734,1.71,0.6,9.6,0.7,9.6
101.01648998260498,1.69,0.6,9.6,0.6,9.6
101.09209156036377,1.68,0.6,9.9,0.4,9.9
101.16755986213684,1.68,0.6,9.6,0.8,9.7
101.24185085296631,1.68,0.6,9.7,0.8,9.8
101.3163230419159,1.68,0.6,9.6,0.7,9.6
101.39161229133606,1.69,0.6,9.6,0.8,9.7
101.46686697006226,1.69,0.5,9.6,0.8,9.6
101.54157757759094,1.73,0.6,9.6,0.5,9.6
101.61668229103088,1.7,0.6,9.6,0.8,9.7
101.69252943992615,1.71,0.6,9.6,0.6,9.6
101.76656079292297,1.74,0.6,9.4,0.6,9.4
101.84107255935669,1.72,0.6,9.8,0.8,9.9
101.91711258888245,1.73,0.6,9.6,0.5,9.6
101.99160552024841,1.72,0.7,9.6,0.4,9.6
102.06670880317688,1.71,0.6,9.6,0.6,9.6
102.14105701446533,1.71,0.6,9.6,0.8,9.7
102.21687865257263,1.7,0.6,9.6,0.8,9.7
102.29160642623901,1.71,0.6,9.6,0.6,9.6
102.36734342575073,1.71,0.6,9.6,0.6,9.6
102.44140839576721,1.71,0.6,9.6,0.7,9.6
102.51714587211609,1.71,0.6,9.4,0.7,9.4
102.59228801727295,1.69,0.6,9.5,0.4,9.5
102.66648125648499,1.7,0.6,9.5,0.4,9.5
102.74152398109436,1.69,0.6,9.6,0.5,9.6
102.8169641494751,1.71,0.6,9.6,0.5,9.6
102.89154267311096,1.7,0.6,9.6,0.6,9.6
102.96709084510803,1.7,0.6,9.6,0.8,9.7
103.04215288162231,1.7,0.6,9.6,0.6,9.6
103.1167345046997,1.7,0.6,9.6,0.6,9.6
103.19135665893555,1.67,0.6,9.6,0.6,9.6
103.2670419216156,1.69,0.6,10.0,0.6,10.0
103.34193825721741,1.7,0.6,9.6,0.8,9.7
103.41716122627258,1.71,0.6,9.6,0.8,9.7
103.49172234535217,1.7,0.6,9.6,0.8,9.7
103.56658983230591,1.68,0.6,9.6,0.8,9.7
103.64181017875671,1.7,0.6,9.6,0.8,9.7
103.71682929992676,1.67,0.6,9.6,0.5,9.6
103.79164814949036,1.7,0.6,9.6,0.8,9.7
103.86668348312378,1.69,0.6,9.6,0.6,9.6
103.94131684303284,1.68,0.6,9.6,0.6,9.6
104.01692223548889,1.69,0.6,9.4,0.7,9.4
104.1110143661499,1.7,0.7,9.6,0.5,9.6
104.18551516532898,1.7,0.6,9.6,0.5,9.6
104.26085162162781,1.69,0.6,9.6,0.5,9.6
104.33571696281433,1.69,0.6,9.6,0.6,9.6
104.41012811660767,1.7,0.5,9.6,0.7,9.6
104.4860007762909,1.69,0.6,9.6,0.6,9.6
104.56049466133118,1.73,0.6,9.6,0.7,9.6
104.63587951660156,1.7,0.6,9.6,0.7,9.6
104.72974872589111,1.68,0.6,9.3,0.6,9.3
104.80454754829407,1.74,0.6,9.6,0.5,9.6
104.87903594970703,1.71,0.7,9.5,0.3,9.5
104.95429825782776,1.73,0.7,9.5,0.4,9.5
105.02962493896484,1.7,0.6,9.6,0.5,9.6
105.1053237915039,1.7,0.6,9.6,0.8,9.7
105.1797387599945,1.7,0.6,9.6,0.5,9.6
105.25385308265686,1.71,0.5,9.6,0.8,9.6
105.32979536056519,1.69,0.6,9.6,0.7,9.6
105.40406537055969,1.68,0.6,9.6,0.6,9.6
105.47900319099426,1.7,0.5,9.6,0.8,9.6
105.55528283119202,1.7,0.6,9.5,0.3,9.5
105.62948489189148,1.69,0.6,9.6,0.7,9.6
105.70451092720032,1.68,0.6,9.6,0.7,9.6
105.7787823677063,1.72,0.6,9.6,0.5,9.6
105.85443210601807,1.7,0.6,9.6,0.6,9.6
105.92982482910156,1.73,0.6,9.6,0.7,9.6
106.00484085083008,1.72,0.6,9.6,0.7,9.6
106.07952737808228,1.7,0.6,9.6,0.6,9.6
106.1541600227356,1.7,0.6,10.0,0.5,10.0
106.22938776016235,1.7,0.6,9.7,0.8,9.8
106.3045334815979,1.71,0.6,9.6,0.8,9.7
106.37989020347595,1.69,0.6,9.6,0.8,9.7
106.4550793170929,1.68,0.6,9.6,0.5,9.6
106.52911496162415,1.68,0.6,9.6,0.7,9.6
106.6049292087555,1.7,0.6,9.6,0.6,9.6
106.67911911010742,1.72,0.6,9.6,0.8,9.7
106.75436043739319,1.71,0.6,9.6,0.7,9.6
106.8292441368103,1.69,0.6,9.6,0.7,9.6
106.90381479263306,1.69,0.6,9.4,0.5,9.4
106.97928810119629,1.7,0.6,9.6,0.4,9.6
107.05453491210938,1.71,0.6,9.6,0.7,9.6
107.12977743148804,1.69,0.6,9.6,0.8,9.7
107.20380663871765,1.68,0.6,9.6,0.7,9.6
107.27944087982178,1.7,0.6,9.5,0.5,9.5
107.35409832000732,1.71,0.6,9.6,0.7,9.6
107.4301438331604,1.69,0.6,9.6,0.7,9.6
107.50473403930664,1.69,0.6,9.6,0.7,9.6
107.5791974067688,1.69,0.6,9.7,0.7,9.7
107.65488004684448,1.69,0.5,9.6,0.9,9.7
107.72973155975342,1.71,0.5,9.7,0.8,9.7
107.80451273918152,1.69,0.6,9.6,0.4,9.6
107.87891483306885,1.7,0.6,9.6,0.5,9.6
107.9536280632019,1.69,0.6,9.6,0.5,9.6
108.02851414680481,1.68,0.6,9.6,0.4,9.6
108.10419845581055,1.7,0.6,9.6,0.7,9.6
108.17958474159241,1.69,0.6,9.6,0.7,9.6
108.25419235229492,1.73,0.6,9.5,0.6,9.5
108.33005332946777,1.69,0.6,9.8,0.8,9.9
108.40424180030823,1.68,0.6,9.5,0.3,9.5
108.47871947288513,1.71,0.6,9.6,0.5,9.6
108.55448269844055,1.7,0.6,9.6,0.5,9.6
108.62953591346741,1.7,0.6,9.6,0.5,9.6
108.70405602455139,1.71,0.6,9.6,0.7,9.6
108.77893233299255,1.69,0.6,9.6,0.7,9.6
108.85434556007385,1.69,0.6,9.6,0.7,9.6
108.92950916290283,1.67,0.6,9.6,0.6,9.6
109.00449085235596,1.69,0.6,9.6,0.6,9.6
109.0794460773468,1.69,0.6,9.6,0.6,9.6
109.15452909469604,1.71,0.6,9.6,0.7,9.6
109.228924036026,1.67,0.6,9.6,0.7,9.6
109.30460262298584,1.67,0.6,9.6,0.7,9.6
109.37957835197449,1.69,0.6,9.6,0.7,9.6
109.4538266658783,1.67,0.6,9.6,0.7,9.6
109.52934050559998,1.67,0.6,9.6,0.7,9.6
109.60473728179932,1.69,0.6,9.6,0.7,9.6
109.67948412895203,1.69,0.6,9.6,0.7,9.6
109.75390958786011,1.69,0.6,9.6,0.7,9.6
109.82923340797424,1.7,0.6,9.6,0.7,9.6
109.90468263626099,1.71,0.6,9.6,0.7,9.6
109.97911334037781,1.68,0.6,9.6,0.7,9.6
110.05479335784912,1.7,0.6,9.6,0.7,9.6
110.12940263748169,1.69,0.6,9.6,0.7,9.6
110.20422458648682,1.68,0.6,9.6,0.7,9.6
110.27976965904236,1.68,0.6,9.6,0.7,9.6
110.35457825660706,1.69,0.6,9.6,0.7,9.6
110.42983746528625,1.69,0.6,9.6,0.6,9.6
110.50374245643616,1.7,0.6,9.6,0.7,9.6
110.57919788360596,1.72,0.6,9.6,0.7,9.6
110.65414357185364,1.7,0.6,9.6,0.7,9.6
110.72939014434814,1.69,0.6,9.6,0.7,9.6
110.80445623397827,1.7,0.6,9.6,0.7,9.6
110.87958264350891,1.67,0.6,9.6,0.7,9.6
110.95378065109253,1.69,0.6,9.6,0.7,9.6
111.03019785881042,1.7,0.6,9.6,0.7,9.6
111.10468053817749,1.7,0.6,9.6,0.7,9.6
111.17939591407776,1.69,0.6,9.6,0.7,9.6
111.25447177886963,1.66,0.6,9.6,0.7,9.6
111.32936596870422,1.66,0.6,9.6,0.7,9.6
111.40520071983337,1.68,0.6,9.6,0.7,9.6
111.47904086112976,1.68,0.6,9.6,0.7,9.6
111.55462884902954,1.69,0.6,9.6,0.7,9.6
111.62909483909607,1.69,0.6,9.6,0.6,9.6
111.70376586914062,1.68,0.6,9.6,0.7,9.6
111.77836966514587,1.72,0.6,9.6,0.6,9.6
111.8550226688385,1.71,0.6,9.6,0.6,9.6
111.929762840271,1.67,0.6,9.6,0.7,9.6
112.00429439544678,1.67,0.6,9.6,0.6,9.6
112.07982635498047,1.67,0.6,9.6,0.7,9.6
112.15330410003662,1.68,0.6,9.6,0.7,9.6
112.22974038124084,1.68,0.6,9.6,0.7,9.6
112.3044445514679,1.68,0.6,9.6,0.6,9.6
112.380042552948,1.69,0.6,9.6,0.7,9.6
112.45452070236206,1.69,0.6,9.6,0.7,9.6
112.54819369316101,1.71,0.6,9.6,0.7,9.6
112.62308645248413,1.7,0.6,9.6,0.7,9.6
112.69800972938538,1.71,0.6,9.6,0.6,9.6
112.77329158782959,1.69,0.6,9.6,0.7,9.6
112.84809017181396,1.69,0.6,9.6,0.7,9.6
112.92429876327515,1.67,0.6,9.6,0.7,9.6
112.99829769134521,1.69,0.6,9.6,0.7,9.6
113.07367205619812,1.66,0.6,9.6,0.7,9.6
113.14851665496826,1.69,0.6,9.6,0.7,9.6
113.22352457046509,1.69,0.6,9.6,0.7,9.6
113.29899144172668,1.66,0.6,9.6,0.7,9.6
113.37321329116821,1.68,0.6,9.6,0.7,9.6
113.4481246471405,1.67,0.6,9.6,0.7,9.6
113.52330136299133,1.68,0.6,9.6,0.6,9.6
113.598060131073,1.68,0.6,9.6,0.7,9.6
113.67388391494751,1.66,0.6,9.6,0.7,9.6
113.7483217716217,1.67,0.6,9.6,0.7,9.6
113.82354760169983,1.69,0.6,9.6,0.7,9.6
113.89837503433228,1.7,0.6,9.6,0.7,9.6
113.9731752872467,1.68,0.6,9.6,0.7,9.6
114.04825925827026,1.68,0.6,9.6,0.7,9.6
114.12391924858093,1.7,0.6,9.6,0.7,9.6
114.19822430610657,1.68,0.6,9.6,0.7,9.6
114.27367329597473,1.7,0.6,9.6,0.7,9.6
114.34803867340088,1.68,0.6,9.6,0.7,9.6
114.4236912727356,1.69,0.6,9.6,0.7,9.6
114.49797034263611,1.7,0.6,9.6,0.7,9.6
114.57304191589355,1.69,0.6,9.6,0.7,9.6
114.64844107627869,1.68,0.6,9.6,0.7,9.6
114.72303652763367,1.67,0.6,9.6,0.7,9.6
114.7986524105072,1.68,0.6,9.6,0.7,9.6
114.8731439113617,1.69,0.6,9.6,0.7,9.6
114.94853258132935,1.7,0.6,9.6,0.7,9.6
115.02323460578918,1.7,0.6,9.6,0.7,9.6
115.09797954559326,1.7,0.6,9.6,0.7,9.6
115.17327904701233,1.69,0.6,9.6,0.7,9.6
115.24821710586548,1.67,0.6,9.6,0.7,9.6
115.32386779785156,1.7,0.6,9.6,0.7,9.6
115.39766335487366,1.67,0.6,9.6,0.7,9.6
115.47265267372131,1.69,0.6,9.6,0.7,9.6
115.54867172241211,1.69,0.6,9.6,0.7,9.6
115.62324047088623,1.7,0.6,9.6,0.7,9.6
115.69820213317871,1.71,0.6,9.6,0.7,9.6
115.77301001548767,1.7,0.6,9.6,0.7,9.6
115.84854984283447,1.69,0.6,9.6,0.7,9.6
115.92387866973877,1.68,0.6,9.6,0.7,9.6
115.99802017211914,1.69,0.6,9.6,0.7,9.6
116.07357668876648,1.7,0.6,9.6,0.7,9.6
116.1488196849823,1.71,0.6,9.6,0.7,9.6
116.22333216667175,1.7,0.6,9.6,0.7,9.6
116.2982120513916,1.69,0.6,9.6,0.7,9.6
116.37400960922241,1.69,0.6,9.6,0.7,9.6
116.44807410240173,1.72,0.6,9.6,0.7,9.6
116.52305698394775,1.69,0.6,9.6,0.6,9.6
116.59839367866516,1.72,0.6,9.6,0.7,9.6
116.67406272888184,1.68,0.6,9.6,0.7,9.6
116.7484040260315,1.7,0.6,9.6,0.7,9.6
116.82315707206726,1.7,0.6,9.6,0.7,9.6
116.8978967666626,1.7,0.6,9.6,0.7,9.6
116.97368574142456,1.71,0.6,9.6,0.7,9.6
117.04873919487,1.7,0.6,9.6,0.7,9.6
117.12312507629395,1.67,0.6,9.6,0.7,9.6
117.1980140209198,1.71,0.6,9.6,0.6,9.6
117.27286744117737,1.7,0.6,9.6,0.7,9.6
117.34815239906311,1.69,0.6,9.6,0.6,9.6
117.4233946800232,1.69,0.6,9.6,0.7,9.6
117.49843788146973,1.69,0.6,9.6,0.7,9.6
117.5733802318573,1.7,0.6,9.6,0.7,9.6
117.64875555038452,1.71,0.6,9.6,0.7,9.6
117.72408270835876,1.71,0.6,9.6,0.7,9.6
117.79794025421143,1.71,0.6,9.6,0.7,9.6
117.873370885849,1.69,0.6,9.6,0.6,9.6
117.94832181930542,1.7,0.6,9.6,0.6,9.6
118.02314877510071,1.7,0.6,9.6,0.7,9.6
118.09853339195251,1.7,0.6,9.6,0.6,9.6
118.17430067062378,1.68,0.6,9.6,0.6,9.6
118.24845695495605,1.69,0.6,9.6,0.7,9.6
118.32343029975891,1.7,0.6,9.6,0.7,9.6
118.398268699646,1.69,0.6,9.6,0.7,9.6
118.47306370735168,1.69,0.6,9.6,0.7,9.6
118.54816150665283,1.69,0.6,9.6,0.7,9.6
118.62314200401306,1.71,0.6,9.6,0.7,9.6
118.69869136810303,1.68,0.6,9.6,0.7,9.6
118.79198050498962,1.68,0.6,9.6,0.7,9.6
118.86727094650269,1.68,0.6,9.6,0.7,9.6
118.94212698936462,1.68,0.6,9.6,0.7,9.6
119.0169825553894,1.69,0.6,9.6,0.6,9.6
119.0922327041626,1.72,0.6,9.6,0.7,9.6
119.16723346710205,1.68,0.6,9.6,0.7,9.6
119.24248623847961,1.7,0.6,9.6,0.7,9.6
119.31714415550232,1.68,0.6,9.6,0.6,9.6
119.39179944992065,1.72,0.6,9.6,0.6,9.6
119.46633195877075,1.69,0.6,9.6,0.7,9.6
119.54223537445068,1.7,0.6,9.6,0.7,9.6
119.6166787147522,1.67,0.6,9.6,0.7,9.6
119.69254231452942,1.69,0.6,9.6,0.6,9.6
119.76722002029419,1.69,0.6,9.6,0.7,9.6
119.84211754798889,1.69,0.6,9.6,0.7,9.6
119.9165952205658,1.7,0.6,9.6,0.7,9.6
119.9930202960968,1.69,0.6,9.6,0.7,9.6
120.06716752052307,1.7,0.6,9.6,0.7,9.6
120.14188623428345,1.7,0.6,9.6,0.7,9.6
120.21668839454651,1.73,0.6,9.6,0.7,9.6
120.2928876876831,1.7,0.6,9.6,0.7,9.6
120.36721587181091,1.69,0.6,9.6,0.7,9.6
120.44198775291443,1.68,0.6,9.6,0.7,9.6
120.51747918128967,1.68,0.6,9.6,0.6,9.6
120.59189414978027,1.7,0.6,9.6,0.7,9.6
120.66733860969543,1.67,0.6,9.6,0.7,9.6
120.74257636070251,1.71,0.6,9.6,0.7,9.6
120.81711530685425,1.68,0.6,9.6,0.7,9.6
120.892254114151,1.71,0.6,9.6,0.7,9.6
120.96656560897827,1.69,0.6,9.6,0.7,9.6
121.04215168952942,1.69,0.6,9.6,0.7,9.6
121.11705303192139,1.66,0.6,9.6,0.7,9.6
121.19265341758728,1.69,0.6,9.6,0.7,9.6
121.2673909664154,1.69,0.6,9.6,0.7,9.6
121.34259152412415,1.7,0.6,9.6,0.7,9.6
121.41701674461365,1.69,0.6,9.6,0.7,9.6
121.49247908592224,1.68,0.6,9.6,0.7,9.6
121.56738710403442,1.68,0.6,9.6,0.6,9.6
121.64323329925537,1.69,0.6,9.6,0.7,9.6
121.71731662750244,1.67,0.6,9.6,0.7,9.6
121.79248642921448,1.71,0.6,9.6,0.7,9.6
121.86737060546875,1.69,0.6,9.6,0.7,9.6
121.94206690788269,1.68,0.6,9.6,0.6,9.6
122.01777505874634,1.68,0.6,9.6,0.7,9.6
122.09272909164429,1.67,0.6,9.6,0.7,9.6
122.16752910614014,1.69,0.6,9.6,0.7,9.6
122.24350118637085,1.67,0.6,9.6,0.7,9.6
122.31751823425293,1.68,0.6,9.6,0.7,9.6
122.39280080795288,1.68,0.6,9.6,0.7,9.6
122.48601293563843,1.7,0.6,9.6,0.7,9.6
122.56128883361816,1.69,0.6,9.6,0.7,9.6
122.63611578941345,1.71,0.6,9.7,0.9,9.8
122.71078491210938,1.71,0.6,9.5,0.3,9.5
122.78646850585938,1.69,0.6,9.6,0.6,9.6
122.86126255989075,1.71,0.6,9.6,0.8,9.7
122.93660855293274,1.72,0.6,9.6,0.7,9.6
123.0116503238678,1.7,0.6,9.6,0.5,9.6
123.08632111549377,1.71,0.6,9.6,0.7,9.6
123.16056370735168,1.72,0.6,9.6,0.6,9.6
123.23633694648743,1.7,0.6,9.6,0.8,9.7
123.31150436401367,1.73,0.5,9.6,0.7,9.6
123.38615441322327,1.71,0.6,9.3,0.6,9.3
123.4610686302185,1.7,0.7,9.4,0.3,9.4
123.53536319732666,1.7,0.6,9.6,0.6,9.6
123.61198544502258,1.68,0.6,9.6,0.4,9.6
123.68632650375366,1.7,0.6,9.5,0.5,9.5
123.76112675666809,1.69,0.6,9.6,0.8,9.7
123.83582425117493,1.68,0.6,9.6,0.6,9.6
123.91151094436646,1.68,0.5,9.6,0.7,9.6
123.98644351959229,1.69,0.6,9.6,0.7,9.6
124.06093287467957,1.67,0.6,9.9,0.7,9.9
124.13621282577515,1.7,0.5,9.6,0.8,9.6
124.21143817901611,1.67,0.6,9.6,0.8,9.7
124.28556227684021,1.68,0.6,9.7,0.8,9.8
124.36186838150024,1.7,0.6,9.7,0.8,9.8
124.4360842704773,1.68,0.6,9.6,0.6,9.6
124.51159119606018,1.67,0.6,9.6,0.7,9.6
124.58605909347534,1.69,0.6,9.6,0.6,9.6
124.66076755523682,1.69,0.6,9.6,0.7,9.6
124.73639345169067,1.67,0.6,9.6,0.6,9.6
124.81099367141724,1.67,0.6,9.3,0.7,9.3
124.88593316078186,1.69,0.6,9.5,0.4,9.5
124.96121668815613,1.71,0.6,9.6,0.7,9.6
125.0358612537384,1.73,0.6,9.6,0.7,9.6
125.11112689971924,1.69,0.6,9.6,0.6,9.6
125.18706345558167,1.69,0.6,9.6,0.5,9.6
125.26133418083191,1.7,0.6,9.7,0.8,9.8
125.33628606796265,1.7,0.6,9.6,0.6,9.6
125.41075658798218,1.69,0.6,9.6,0.6,9.6
125.48625349998474,1.7,0.6,10.3,0.5,10.3
125.56170749664307,1.7,0.6,9.6,0.8,9.7
125.63530421257019,1.71,0.6,9.6,0.8,9.7
125.7111885547638,1.71,0.5,9.7,0.8,9.7
125.78561353683472,1.67,0.6,9.7,0.8,9.8
125.86145353317261,1.69,0.6,9.6,0.7,9.6
125.93656325340271,1.69,0.6,9.6,0.5,9.6
126.01137137413025,1.7,0.6,9.6,0.8,9.7
126.08648633956909,1.67,0.6,9.6,0.7,9.6
126.1614842414856,1.69,0.6,9.6,0.7,9.6
126.23610401153564,1.68,0.6,9.7,1.0,9.8
126.3112256526947,1.69,0.7,9.6,0.6,9.6
126.38614344596863,1.66,0.7,9.6,0.3,9.6
126.46125721931458,1.68,0.6,9.6,0.5,9.6
126.53692388534546,1.69,0.6,9.6,0.5,9.6
126.61120581626892,1.72,0.6,9.6,0.5,9.6
126.68646216392517,1.71,0.6,9.6,0.8,9.7
126.76133394241333,1.69,0.6,9.6,0.6,9.6
126.83608770370483,1.68,0.6,9.6,0.7,9.6
126.9109263420105,1.68,0.6,9.6,0.7,9.6
126.9862892627716,1.71,0.6,9.6,0.7,9.6
127.06150484085083,1.67,0.6,9.6,0.7,9.6
127.13626027107239,1.7,0.6,9.6,0.7,9.6
127.21153497695923,1.69,0.6,9.6,0.7,9.6
127.28630113601685,1.68,0.6,9.6,0.6,9.6
127.36136984825134,1.69,0.6,9.6,0.7,9.6
127.43627190589905,1.68,0.6,9.6,0.7,9.6
127.51100945472717,1.69,0.6,9.6,0.7,9.6
127.58575057983398,1.68,0.6,9.6,0.7,9.6
127.6606764793396,1.66,0.6,9.6,0.7,9.6
127.73605132102966,1.7,0.6,9.6,0.7,9.6
127.81126546859741,1.67,0.6,9.6,0.7,9.6
127.8860535621643,1.69,0.6,9.6,0.7,9.6
127.96144390106201,1.69,0.6,9.6,0.7,9.6
128.03511214256287,1.68,0.6,9.6,0.7,9.6
128.1109037399292,1.71,0.6,9.6,0.7,9.6
128.18656253814697,1.7,0.6,9.6,0.7,9.6
128.26158475875854,1.67,0.6,9.6,0.7,9.6
128.33631801605225,1.68,0.6,9.6,0.7,9.6
128.41097354888916,1.7,0.6,9.6,0.7,9.6
128.4863305091858,1.7,0.6,9.6,0.7,9.6
128.56179571151733,1.68,0.6,9.6,0.7,9.6
128.6359384059906,1.71,0.6,9.6,0.7,9.6
128.71157002449036,1.71,0.6,9.6,0.7,9.6
128.78653931617737,1.68,0.6,9.6,0.7,9.6
128.8604896068573,1.71,0.6,9.6,0.7,9.6
128.9363934993744,1.71,0.6,9.6,0.7,9.6
129.01144433021545,1.7,0.6,9.6,0.7,9.6
129.08635997772217,1.68,0.6,9.6,0.7,9.6
129.16156601905823,1.7,0.6,9.6,0.7,9.6
129.23613452911377,1.68,0.6,9.6,0.7,9.6
129.3107614517212,1.69,0.6,9.6,0.7,9.6
129.38623094558716,1.67,0.6,9.6,0.7,9.6
129.46100759506226,1.68,0.6,9.6,0.7,9.6
129.53662157058716,1.67,0.6,9.6,0.7,9.6
129.61145329475403,1.68,0.6,9.6,0.7,9.6
129.6866021156311,1.68,0.6,9.6,0.7,9.6
129.7611107826233,1.69,0.6,9.6,0.6,9.6
129.83569288253784,1.69,0.6,9.6,0.7,9.6
129.91130018234253,1.71,0.6,9.6,0.7,9.6
129.9860258102417,1.71,0.6,9.6,0.7,9.6
130.06136965751648,1.71,0.6,9.6,0.7,9.6
130.13595938682556,1.69,0.6,9.6,0.7,9.6
130.21130967140198,1.68,0.6,9.6,0.6,9.6
130.2861843109131,1.68,0.6,9.6,0.7,9.6
130.36119771003723,1.67,0.6,9.6,0.7,9.6
130.43666338920593,1.68,0.6,9.6,0.7,9.6
130.51124572753906,1.68,0.6,9.6,0.7,9.6
130.58625102043152,1.69,0.6,9.6,0.7,9.6
130.66058254241943,1.7,0.6,9.6,0.7,9.6
130.73604893684387,1.71,0.6,9.6,0.7,9.6
130.81121063232422,1.69,0.6,9.6,0.7,9.6
130.88625407218933,1.72,0.6,9.6,0.7,9.6
130.96196031570435,1.71,0.6,9.6,0.7,9.6
131.03611373901367,1.68,0.6,9.6,0.7,9.6
131.11126232147217,1.69,0.6,9.6,0.7,9.6
131.18634796142578,1.71,0.6,9.6,0.7,9.6
131.26165580749512,1.69,0.6,9.6,0.7,9.6
131.33636093139648,1.69,0.6,9.6,0.7,9.6
131.41196274757385,1.68,0.6,9.6,0.7,9.6
131.48708772659302,1.69,0.6,9.6,0.7,9.6
131.561838388443,1.66,0.6,9.6,0.6,9.6
131.6360878944397,1.69,0.6,9.6,0.7,9.6
131.71088123321533,1.68,0.6,9.6,0.7,9.6
131.7863781452179,1.68,0.6,9.6,0.7,9.6
131.86113262176514,1.67,0.6,9.6,0.7,9.6
131.93661618232727,1.67,0.6,9.6,0.6,9.6
132.01101660728455,1.65,0.6,9.6,0.7,9.6
132.08584189414978,1.68,0.6,9.6,0.7,9.6
132.16190123558044,1.68,0.6,9.6,0.7,9.6
132.2362425327301,1.68,0.6,9.6,0.6,9.6
132.3114902973175,1.67,0.6,9.6,0.7,9.6
132.38664603233337,1.68,0.6,9.6,0.7,9.6
132.46124243736267,1.69,0.6,9.6,0.7,9.6
132.5365161895752,1.7,0.6,9.6,0.7,9.6
132.6115894317627,1.69,0.6,9.6,0.7,9.6
132.6859142780304,1.69,0.6,9.6,0.7,9.6
132.7619984149933,1.68,0.6,9.6,0.7,9.6
132.8362753391266,1.67,0.6,9.6,0.6,9.6
132.9108693599701,1.69,0.6,9.6,0.6,9.6
132.9869601726532,1.67,0.6,9.6,0.7,9.6
133.06172108650208,1.68,0.6,9.6,0.7,9.6
133.1362431049347,1.71,0.6,9.6,0.7,9.6
133.21144223213196,1.7,0.6,9.6,0.7,9.6
133.28691697120667,1.71,0.6,9.6,0.7,9.6
133.36167168617249,1.7,0.6,9.6,0.7,9.6
133.4372684955597,1.7,0.6,9.6,0.7,9.6
133.5117220878601,1.72,0.6,9.6,0.7,9.6
133.58669018745422,1.72,0.6,9.6,0.7,9.6
133.66113877296448,1.68,0.6,9.6,0.7,9.6
133.7361297607422,1.67,0.6,9.6,0.7,9.6
133.81154465675354,1.72,0.6,9.6,0.7,9.6
133.88640999794006,1.68,0.6,9.6,0.7,9.6
133.96178936958313,1.71,0.6,9.6,0.7,9.6
134.0361247062683,1.7,0.6,9.6,0.7,9.6
134.11113047599792,1.67,0.6,9.6,0.7,9.6
134.18595695495605,1.7,0.6,9.6,0.7,9.6
134.26129722595215,1.69,0.6,9.6,0.7,9.6
134.33641028404236,1.68,0.6,9.6,0.7,9.6
134.41132879257202,1.68,0.6,9.6,0.7,9.6
134.48712158203125,1.7,0.6,9.6,0.7,9.6
134.5618531703949,1.7,0.6,9.6,0.7,9.6
134.63663601875305,1.67,0.6,9.6,0.7,9.6
134.71134161949158,1.69,0.6,9.6,0.7,9.6
134.78670072555542,1.69,0.6,9.6,0.7,9.6
134.86169981956482,1.69,0.6,9.6,0.7,9.6
134.93689680099487,1.7,0.6,9.6,0.7,9.6
135.0114505290985,1.68,0.6,9.6,0.7,9.6
135.08654165267944,1.72,0.6,9.6,0.7,9.6
135.1609661579132,1.69,0.6,9.6,0.7,9.6
135.23776960372925,1.68,0.6,9.6,0.7,9.6
135.31153345108032,1.7,0.6,9.6,0.7,9.6
135.38627576828003,1.68,0.6,9.6,0.7,9.6
135.47984313964844,1.68,0.6,9.6,0.7,9.6
135.55539464950562,1.7,0.6,9.6,0.7,9.6
135.63014936447144,1.69,0.6,9.6,0.7,9.6
135.7055425643921,1.69,0.6,9.6,0.7,9.6
135.78049874305725,1.67,0.6,9.6,0.7,9.6
135.85521697998047,1.69,0.6,9.6,0.7,9.6
135.93025016784668,1.69,0.6,9.6,0.7,9.6
136.0050013065338,1.69,0.6,9.6,0.7,9.6
136.0796401500702,1.67,0.6,9.6,0.7,9.6
136.15533709526062,1.69,0.6,9.6,0.7,9.6
136.23079419136047,1.69,0.6,9.6,0.7,9.6
136.30567336082458,1.7,0.6,9.6,0.7,9.6
136.3796591758728,1.68,0.6,9.6,0.7,9.6
136.4551122188568,1.68,0.6,9.6,0.6,9.6
136.53048181533813,1.69,0.6,9.6,0.7,9.6
136.60577654838562,1.71,0.6,9.6,0.7,9.6
136.67976713180542,1.72,0.6,9.6,0.7,9.6
136.7552535533905,1.7,0.6,9.6,0.7,9.6
136.83041667938232,1.68,0.6,9.6,0.7,9.6
136.90546464920044,1.67,0.6,9.6,0.7,9.6
136.98022627830505,1.69,0.6,9.6,0.7,9.6
137.05552291870117,1.66,0.6,9.6,0.7,9.6
137.13026642799377,1.67,0.6,9.6,0.7,9.6
137.20458030700684,1.67,0.6,9.6,0.6,9.6
137.28069186210632,1.69,0.6,9.6,0.7,9.6
137.35556030273438,1.67,0.6,9.6,0.7,9.6
137.4303171634674,1.68,0.6,9.6,0.7,9.6
137.50493025779724,1.7,0.6,9.7,0.9,9.8
137.57954716682434,1.68,0.6,9.6,0.7,9.6
137.655415058136,1.69,0.6,9.6,0.6,9.6
137.73028469085693,1.69,0.6,9.6,0.5,9.6
137.80603075027466,1.68,0.6,9.6,0.7,9.6
137.87942147254944,1.68,0.6,9.6,0.8,9.7
137.95519256591797,1.68,0.5,9.6,0.7,9.6
138.0298523902893,1.7,0.6,9.3,0.5,9.3
138.10421013832092,1.72,0.7,9.5,0.4,9.5
138.18061423301697,1.71,0.6,9.6,0.5,9.6
138.25558042526245,1.7,0.7,9.5,0.4,9.5
138.32993578910828,1.67,0.6,9.7,0.8,9.8
138.40575051307678,1.66,0.6,9.6,0.8,9.7
138.4802212715149,1.68,0.5,10.2,0.8,10.2
138.55574750900269,1.67,0.6,9.5,0.6,9.5
138.63071513175964,1.67,0.6,9.5,0.5,9.5
138.70517921447754,1.67,0.6,9.6,0.7,9.6
138.77973914146423,1.68,0.6,9.7,0.8,9.8
138.8552634716034,1.66,0.7,9.5,0.5,9.5
138.93064546585083,1.69,0.6,9.6,0.7,9.6
139.00516033172607,1.68,0.5,9.2,0.6,9.2
139.0809326171875,1.69,0.6,9.6,0.7,9.6
139.15538716316223,1.67,0.6,9.7,0.6,9.7
139.23035740852356,1.7,0.6,9.6,0.6,9.6
139.30586290359497,1.69,0.6,9.6,0.7,9.6
139.38028073310852,1.68,0.6,9.6,0.6,9.6
139.45561003684998,1.72,0.6,9.6,0.7,9.6
139.53007006645203,1.71,0.6,9.6,0.7,9.6
139.60522842407227,1.72,0.6,9.6,0.7,9.6
139.68150186538696,1.7,0.6,10.9,0.6,10.9
139.7554473876953,1.74,0.6,9.6,0.8,9.7
139.83044981956482,1.73,0.6,9.6,0.8,9.7
139.90521883964539,1.69,0.5,9.6,0.8,9.6
139.9803545475006,1.68,0.6,9.6,0.8,9.7
140.05517411231995,1.69,0.6,9.6,0.7,9.6
140.13066816329956,1.71,0.6,9.6,0.5,9.6
140.20568203926086,1.68,0.5,9.6,0.8,9.6
140.28083038330078,1.7,0.6,9.6,0.6,9.6
140.3554825782776,1.7,0.6,9.6,0.6,9.6
140.43037796020508,1.72,0.6,9.6,0.7,9.6
140.50534439086914,1.7,0.6,9.9,0.9,10.0
140.58085179328918,1.71,0.6,9.6,0.5,9.6
140.65491843223572,1.68,0.6,9.5,0.4,9.5
140.7306215763092,1.71,0.6,9.5,0.4,9.5
140.80596208572388,1.69,0.6,9.6,0.6,9.6
140.8805902004242,1.69,0.6,9.6,0.8,9.7
140.95491862297058,1.69,0.6,9.6,0.6,9.6
141.0308816432953,1.71,0.6,9.6,0.7,9.6
141.10578322410583,1.71,0.6,9.6,0.6,9.6
141.18103504180908,1.71,0.6,9.9,0.7,9.9
141.25537371635437,1.69,0.5,9.5,0.8,9.5
141.33016848564148,1.71,0.6,9.7,0.8,9.8
141.40503358840942,1.71,0.6,9.6,0.5,9.6
141.48062562942505,1.71,0.6,9.6,0.4,9.6
141.55603623390198,1.7,0.7,9.6,0.5,9.6
141.6310431957245,1.68,0.6,9.6,0.5,9.6
141.70559310913086,1.7,0.6,9.6,0.7,9.6
141.78077626228333,1.71,0.6,9.6,0.7,9.6
141.85541701316833,1.72,0.6,9.4,0.7,9.4
141.93087196350098,1.71,0.6,9.9,0.8,10.0
142.0059506893158,1.68,0.6,9.6,0.4,9.6
142.08113408088684,1.69,0.6,9.6,0.6,9.6
142.15498661994934,1.69,0.6,9.6,0.6,9.6
142.2306032180786,1.7,0.6,9.6,0.6,9.6
142.30566310882568,1.69,0.6,9.6,0.6,9.6
142.38083148002625,1.69,0.6,9.6,0.7,9.6
142.45507645606995,1.7,0.6,9.6,0.7,9.6
142.53009748458862,1.7,0.7,9.1,0.7,9.2
142.60550546646118,1.71,0.6,9.8,0.9,9.9
142.68147349357605,1.7,0.6,9.5,0.4,9.5
142.75589060783386,1.69,0.6,9.6,0.6,9.6
142.8304204940796,1.68,0.6,9.6,0.7,9.6
142.9052004814148,1.7,0.6,9.6,0.8,9.7
142.98015999794006,1.69,0.6,9.6,0.7,9.6
143.05627036094666,1.71,0.6,9.6,0.5,9.6
143.13075804710388,1.7,0.6,9.6,0.7,9.6
143.20554542541504,1.71,0.6,9.6,0.6,9.6
143.27995538711548,1.69,0.7,9.6,0.5,9.6
143.35533094406128,1.7,0.6,9.7,0.8,9.8
143.43153882026672,1.69,0.6,9.7,0.8,9.8
143.50528502464294,1.7,0.6,9.6,0.8,9.7
143.58045196533203,1.7,0.6,9.6,0.8,9.7
143.65598368644714,1.67,0.6,9.6,0.8,9.7
143.7299783229828,1.67,0.6,9.6,0.6,9.6
143.82398772239685,1.7,0.6,9.6,0.6,9.6
143.89947509765625,1.68,0.6,9.6,0.6,9.6
143.97413182258606,1.69,0.6,9.8,0.7,9.8
144.04948616027832,1.7,0.5,9.5,0.8,9.5
144.12470960617065,1.69,0.5,9.6,0.8,9.6
144.1996705532074,1.7,0.6,9.6,0.8,9.7
144.27445197105408,1.67,0.6,9.6,0.7,9.6
144.34879088401794,1.69,0.6,9.6,0.6,9.6
144.42407131195068,1.69,0.6,9.6,0.7,9.6
144.4993212223053,1.68,0.6,9.6,0.7,9.6
144.5740351676941,1.66,0.6,9.6,0.7,9.6
144.64939713478088,1.7,0.6,9.6,0.7,9.6
144.72430801391602,1.71,0.6,9.3,0.3,9.3
144.7996666431427,1.69,0.7,9.8,0.6,9.8
144.8744535446167,1.68,0.5,9.6,0.8,9.6
144.94971537590027,1.7,0.6,9.6,0.8,9.7
145.0244734287262,1.67,0.6,9.6,0.6,9.6
145.099219083786,1.69,0.6,9.6,0.7,9.6
145.17442750930786,1.68,0.6,9.6,0.8,9.7
145.24946880340576,1.68,0.6,9.6,0.5,9.6
145.3242917060852,1.67,0.6,9.6,0.8,9.7
145.39955615997314,1.67,0.6,9.6,0.6,9.6
145.4742329120636,1.69,0.6,9.5,0.6,9.5
145.5494887828827,1.69,0.6,9.6,0.7,9.6
145.62451148033142,1.68,0.6,9.6,0.7,9.6
145.6985466480255,1.71,0.6,9.6,0.6,9.6
145.77418398857117,1.67,0.6,9.6,0.6,9.6
145.84946465492249,1.67,0.6,9.7,0.7,9.7
145.92447900772095,1.69,0.6,9.6,0.7,9.6
145.9993541240692,1.69,0.6,9.6,0.7,9.6
146.0738513469696,1.69,0.6,9.6,0.7,9.6
146.14896607398987,1.69,0.6,9.6,0.7,9.6
146.22371196746826,1.67,0.6,9.6,0.7,9.6
146.29916644096375,1.66,0.6,9.6,0.7,9.6
146.37508749961853,1.69,0.6,9.6,0.7,9.6
146.44953417778015,1.68,0.6,9.6,0.7,9.6
146.52444791793823,1.72,0.6,9.6,0.7,9.6
146.59932017326355,1.69,0.6,10.3,0.5,10.3
146.67361569404602,1.7,0.6,9.5,0.7,9.5
146.74866151809692,1.69,0.6,9.6,0.8,9.7
146.82477927207947,1.69,0.6,9.6,0.8,9.7
146.8989200592041,1.69,0.6,9.6,0.8,9.7
146.9749686717987,1.69,0.6,9.6,0.5,9.6
147.04926371574402,1.68,0.6,9.7,0.7,9.7
147.12482285499573,1.68,0.6,9.6,0.6,9.6
147.19978189468384,1.67,0.6,9.6,0.7,9.6
147.2745509147644,1.68,0.6,9.8,1.0,9.9
147.34934973716736,1.71,0.6,9.6,0.5,9.6
147.424649477005,1.71,0.6,9.5,0.4,9.5
147.4992733001709,1.71,0.6,9.6,0.5,9.6
147.5746328830719,1.7,0.6,9.6,0.5,9.6
147.6485686302185,1.69,0.6,9.6,0.7,9.6
147.72371339797974,1.69,0.6,9.6,0.7,9.6
147.79987573623657,1.7,0.6,9.6,0.5,9.6
147.8743314743042,1.66,0.6,9.6,0.7,9.6
147.94946670532227,1.67,0.6,9.6,0.8,9.7
148.02429628372192,1.69,0.6,9.6,0.6,9.6
148.0993480682373,1.71,0.6,9.7,0.7,9.7
148.17389273643494,1.72,0.6,9.6,0.7,9.6
148.24921417236328,1.7,0.6,9.6,0.6,9.6
148.32403469085693,1.68,0.6,9.6,0.7,9.6
148.40012001991272,1.69,0.6,9.6,0.7,9.6
148.47408819198608,1.68,0.6,9.6,0.7,9.6
148.54985642433167,1.66,0.6,9.6,0.6,9.6
148.6243772506714,1.67,0.6,9.6,0.7,9.6
148.69915318489075,1.68,0.6,9.6,0.7,9.6
148.7745976448059,1.68,0.6,9.6,0.7,9.6
148.8495180606842,1.66,0.6,9.6,0.7,9.6
148.92424631118774,1.66,0.6,9.6,0.7,9.6
148.99938678741455,1.69,0.6,9.6,0.7,9.6
149.07440567016602,1.71,0.6,9.6,0.7,9.6
149.1494014263153,1.7,0.6,9.6,0.7,9.6
149.224182844162,1.7,0.6,9.6,0.7,9.6
149.29942345619202,1.69,0.6,9.6,0.7,9.6
149.37429285049438,1.7,0.6,9.6,0.7,9.6
149.44953560829163,1.71,0.6,9.6,0.7,9.6
149.52441906929016,1.69,0.6,9.6,0.7,9.6
149.59918975830078,1.69,0.6,9.6,0.7,9.6
149.67393445968628,1.69,0.6,9.6,0.7,9.6
149.74941301345825,1.65,0.6,9.6,0.7,9.6
149.82475018501282,1.68,0.6,9.6,0.7,9.6
149.89957213401794,1.66,0.6,9.6,0.7,9.6
149.97484254837036,1.68,0.6,9.6,0.7,9.6
150.04938292503357,1.68,0.6,9.6,0.7,9.6
150.1245629787445,1.64,0.7,9.5,0.4,9.5
150.21871733665466,1.67,0.6,9.8,0.9,9.9
150.29294657707214,1.69,0.6,9.6,0.8,9.7
150.36920833587646,1.68,0.6,9.6,0.8,9.7
150.4429748058319,1.68,0.6,9.6,0.7,9.6
150.51811957359314,1.67,0.6,9.6,0.8,9.7
150.59292149543762,1.68,0.6,9.6,0.8,9.7
150.66874051094055,1.69,0.6,9.6,0.6,9.6
